{
    "resourceType": "Bundle",
    "id": "54f8b7e3-acd0-407d-90c6-374ff904e66d",
    "meta": {
        "profile": [
            "http://nphies.sa/fhir/ksa/nphies-fs/StructureDefinition/bundle|1.0.0"
        ]
    },
    "type": "message",
    "timestamp": "2024-03-27T15:00:11.694Z",
    "entry": [
        {
            "fullUrl": "http://pseudo-payer.com.sa/MessageHeader/4e3cfef0-d573-49f5-b396-bad0aeeed36f",
            "resource": {
                "resourceType": "MessageHeader",
                "id": "4e3cfef0-d573-49f5-b396-bad0aeeed36f",
                "meta": {
                    "profile": [
                        "http://nphies.sa/fhir/ksa/nphies-fs/StructureDefinition/message-header|1.0.0"
                    ]
                },
                "eventCoding": {
                    "system": "http://nphies.sa/terminology/CodeSystem/ksa-message-events",
                    "code": "advanced-authorization"
                },
                "destination": [
                    {
                        "endpoint": "http://nphies.sa/license/provider-license/PR-FHIR",
                        "receiver": {
                            "type": "Organization",
                            "identifier": {
                                "system": "http://nphies.sa/license/provider-license",
                                "value": "PR-FHIR"
                            }
                        }
                    }
                ],
                "sender": {
                    "type": "Organization",
                    "identifier": {
                        "system": "http://nphies.sa/license/payer-license",
                        "value": "INS-FHIR"
                    }
                },
                "source": {
                    "endpoint": "http://nphies.sa/license/payer-license/INS-FHIR"
                },
                "focus": [
                    {
                        "reference": "http://pseudo-payer.com.sa/ClaimResponse/1711551611694"
                    }
                ]
            }
        },
        {
            "resource": {
                "resourceType": "Organization",
                "id": 10,
                "meta": {
                    "profile": [
                        "http://nphies.sa/fhir/ksa/nphies-fs/StructureDefinition/policyholder-organization|1.0.0"
                    ]
                },
                "name": "IQVIA",
                "active": true
            },
            "fullUrl": "http://pseudo-payer.com.sa/Organization/10"
        },
        {
            "resource": {
                "resourceType": "ClaimResponse",
                "id": 1711551611694,
                "meta": {
                    "profile": [
                        "http://nphies.sa/fhir/ksa/nphies-fs/StructureDefinition/advanced-authorization|1.0.0"
                    ]
                },
                "extension": [
                    {
                        "url": "http://nphies.sa/fhir/ksa/nphies-fs/StructureDefinition/extension-diagnosis",
                        "extension": [
                            {
                                "url": "http://nphies.sa/fhir/ksa/nphies-fs/StructureDefinition/extension-diagnosis-sequence",
                                "valuePositiveInt": 1
                            },
                            {
                                "url": "http://nphies.sa/fhir/ksa/nphies-fs/StructureDefinition/extension-diagnosis-diagnosisCodeableConcept",
                                "valueCodeableConcept": {
                                    "coding": [
                                        {
                                            "system": "http://hl7.org/fhir/sid/icd-10-am",
                                            "code": "K02.0",
                                            "display": "Caries limited to enamel"
                                        }
                                    ]
                                }
                            },
                            {
                                "url": "http://nphies.sa/fhir/ksa/nphies-fs/StructureDefinition/extension-diagnosis-type",
                                "valueCodeableConcept": {
                                    "coding": [
                                        {
                                            "system": "http://nphies.sa/terminology/CodeSystem/diagnosis-type",
                                            "code": "principal",
                                            "display": "Principal Diagnosis"
                                        }
                                    ]
                                }
                            }
                        ]
                    },
                    {
                        "url": "http://nphies.sa/fhir/ksa/nphies-fs/StructureDefinition/extension-supportingInfo",
                        "extension": [
                            {
                                "url": "http://nphies.sa/fhir/ksa/nphies-fs/StructureDefinition/extension-supportingInfo-sequence",
                                "valuePositiveInt": 1
                            },
                            {
                                "url": "http://nphies.sa/fhir/ksa/nphies-fs/StructureDefinition/extension-supportingInfo-category",
                                "valueCodeableConcept": {
                                    "coding": [
                                        {
                                            "system": "http://nphies.sa/terminology/CodeSystem/claim-information-category",
                                            "code": "treatment-plan",
                                            "display": "Treatment Plan"
                                        }
                                    ]
                                }
                            },
                            {
                                "url": "http://nphies.sa/fhir/ksa/nphies-fs/StructureDefinition/extension-supportingInfo-valueString",
                                "valueString": "composite restoration"
                            }
                        ]
                    },
                    {
                        "url": "http://nphies.sa/fhir/ksa/nphies-fs/StructureDefinition/extension-supportingInfo",
                        "extension": [
                            {
                                "url": "http://nphies.sa/fhir/ksa/nphies-fs/StructureDefinition/extension-supportingInfo-sequence",
                                "valuePositiveInt": 2
                            },
                            {
                                "url": "http://nphies.sa/fhir/ksa/nphies-fs/StructureDefinition/extension-supportingInfo-category",
                                "valueCodeableConcept": {
                                    "coding": [
                                        {
                                            "system": "http://nphies.sa/terminology/CodeSystem/claim-information-category",
                                            "code": "patient-history",
                                            "display": "patient history"
                                        }
                                    ]
                                }
                            },
                            {
                                "url": "http://nphies.sa/fhir/ksa/nphies-fs/StructureDefinition/extension-supportingInfo-valueString",
                                "valueString": "no history"
                            }
                        ]
                    },
                    {
                        "url": "http://nphies.sa/fhir/ksa/nphies-fs/StructureDefinition/extension-supportingInfo",
                        "extension": [
                            {
                                "url": "http://nphies.sa/fhir/ksa/nphies-fs/StructureDefinition/extension-supportingInfo-sequence",
                                "valuePositiveInt": 3
                            },
                            {
                                "url": "http://nphies.sa/fhir/ksa/nphies-fs/StructureDefinition/extension-supportingInfo-category",
                                "valueCodeableConcept": {
                                    "coding": [
                                        {
                                            "system": "http://nphies.sa/terminology/CodeSystem/claim-information-category",
                                            "code": "history-of-present-illness",
                                            "display": "history Of Present Illness"
                                        }
                                    ]
                                }
                            },
                            {
                                "url": "http://nphies.sa/fhir/ksa/nphies-fs/StructureDefinition/extension-supportingInfo-valueString",
                                "valueString": "no systemic disease"
                            }
                        ]
                    },
                    {
                        "url": "http://nphies.sa/fhir/ksa/nphies-fs/StructureDefinition/extension-supportingInfo",
                        "extension": [
                            {
                                "url": "http://nphies.sa/fhir/ksa/nphies-fs/StructureDefinition/extension-supportingInfo-sequence",
                                "valuePositiveInt": 4
                            },
                            {
                                "url": "http://nphies.sa/fhir/ksa/nphies-fs/StructureDefinition/extension-supportingInfo-category",
                                "valueCodeableConcept": {
                                    "coding": [
                                        {
                                            "system": "http://nphies.sa/terminology/CodeSystem/claim-information-category",
                                            "code": "physical-examination",
                                            "display": "Physical Examination"
                                        }
                                    ]
                                }
                            },
                            {
                                "url": "http://nphies.sa/fhir/ksa/nphies-fs/StructureDefinition/extension-supportingInfo-valueString",
                                "valueString": "Stable"
                            }
                        ]
                    },
                    {
                        "url": "http://nphies.sa/fhir/ksa/nphies-fs/StructureDefinition/extension-supportingInfo",
                        "extension": [
                            {
                                "url": "http://nphies.sa/fhir/ksa/nphies-fs/StructureDefinition/extension-supportingInfo-sequence",
                                "valuePositiveInt": 5
                            },
                            {
                                "url": "http://nphies.sa/fhir/ksa/nphies-fs/StructureDefinition/extension-supportingInfo-category",
                                "valueCodeableConcept": {
                                    "coding": [
                                        {
                                            "system": "http://nphies.sa/terminology/CodeSystem/claim-information-category",
                                            "code": "chief-complaint",
                                            "display": "chief complaint"
                                        }
                                    ]
                                }
                            },
                            {
                                "url": "http://nphies.sa/fhir/ksa/nphies-fs/StructureDefinition/extension-supportingInfo-code",
                                "valueCodeableConcept": {
                                    "coding": [
                                        {
                                            "system": "http://hl7.org/fhir/sid/icd-10-am",
                                            "code": "K02.0",
                                            "display": "Caries limited to enamel"
                                        }
                                    ]
                                }
                            }
                        ]
                    },
                    {
                        "url": "http://nphies.sa/fhir/ksa/nphies-fs/StructureDefinition/extension-supportingInfo",
                        "extension": [
                            {
                                "url": "http://nphies.sa/fhir/ksa/nphies-fs/StructureDefinition/extension-supportingInfo-sequence",
                                "valuePositiveInt": 6
                            },
                            {
                                "url": "http://nphies.sa/fhir/ksa/nphies-fs/StructureDefinition/extension-supportingInfo-category",
                                "valueCodeableConcept": {
                                    "coding": [
                                        {
                                            "system": "http://nphies.sa/terminology/CodeSystem/claim-information-category",
                                            "code": "investigation-result",
                                            "display": "Investigation Result"
                                        }
                                    ]
                                }
                            },
                            {
                                "url": "http://nphies.sa/fhir/ksa/nphies-fs/StructureDefinition/extension-supportingInfo-code",
                                "valueCodeableConcept": {
                                    "coding": [
                                        {
                                            "system": "http://nphies.sa/terminology/CodeSystem/investigation-result",
                                            "code": "INP",
                                            "display": "Investigation(s) not performed"
                                        }
                                    ]
                                }
                            }
                        ]
                    },
                    {
                        "url": "http://nphies.sa/fhir/ksa/nphies-fs/StructureDefinition/extension-advancedAuth-reason",
                        "valueCodeableConcept": {
                            "coding": [
                                {
                                    "system": "http://nphies.sa/terminology/CodeSystem/advancedAuth-reason",
                                    "code": "referral",
                                    "display": "Referral"
                                }
                            ]
                        }
                    },
                    {
                        "url": "http://nphies.sa/fhir/ksa/nphies-fs/StructureDefinition/extension-serviceProvider",
                        "valueReference": {
                            "reference": "http://pseudo-payer.com.sa/Organization/8"
                        }
                    },
                    {
                        "url": "http://nphies.sa/fhir/ksa/nphies-fs/StructureDefinition/extension-adjudication-outcome",
                        "valueCodeableConcept": {
                            "coding": [
                                {
                                    "system": "http://nphies.sa/terminology/CodeSystem/adjudication-outcome",
                                    "code": "approved"
                                }
                            ]
                        }
                    }
                ],
                "identifier": [
                    {
                        "system": "http://pseudo-payer.com.sa/claimresponse",
                        "value": "Auth51611694"
                    }
                ],
                "status": "active",
                "type": {
                    "coding": [
                        {
                            "system": "http://terminology.hl7.org/CodeSystem/claim-type",
                            "code": "oral",
                            "display": "Dental"
                        }
                    ]
                },
                "subType": {
                    "coding": [
                        {
                            "system": "http://nphies.sa/terminology/CodeSystem/claim-subtype",
                            "code": "op",
                            "display": "OutPatient"
                        }
                    ]
                },
                "use": "preauthorization",
                "patient": {
                    "reference": "http://pseudo-payer.com.sa/Patient/7"
                },
                "created": "2024-03-27",
                "insurer": {
                    "reference": "http://pseudo-payer.com.sa/Organization/9"
                },
                "outcome": "complete",
                "preAuthRef": "Auth1711551614",
                "preAuthPeriod": {
                    "start": "2024-03-20T21:00:00.000Z",
                    "end": "2024-03-28T21:00:00.000Z"
                },
                "addItem": [
                    {
                        "extension": [
                            {
                                "url": "http://nphies.sa/fhir/ksa/nphies-fs/StructureDefinition/extension-sequence",
                                "valuePositiveInt": 1
                            },
                            {
                                "url": "http://nphies.sa/fhir/ksa/nphies-fs/StructureDefinition/extension-package",
                                "valueBoolean": false
                            },
                            {
                                "url": "http://nphies.sa/fhir/ksa/nphies-fs/StructureDefinition/extension-maternity",
                                "valueBoolean": false
                            },
                            {
                                "url": "http://nphies.sa/fhir/ksa/nphies-fs/StructureDefinition/extension-adjudication-outcome",
                                "valueCodeableConcept": {
                                    "coding": [
                                        {
                                            "system": "http://nphies.sa/terminology/CodeSystem/adjudication-outcome",
                                            "code": "approved"
                                        }
                                    ]
                                }
                            }
                        ],
                        "productOrService": {
                            "coding": [
                                {
                                    "system": "http://nphies.sa/terminology/CodeSystem/medical-devices",
                                    "code": "35870",
                                    "display": "Dental composite resin"
                                }
                            ]
                        },
                        "adjudication": [
                            {
                                "category": {
                                    "coding": [
                                        {
                                            "system": "http://terminology.hl7.org/CodeSystem/adjudication",
                                            "code": "eligible"
                                        }
                                    ]
                                },
                                "amount": {
                                    "value": 250,
                                    "currency": "SAR"
                                }
                            },
                            {
                                "category": {
                                    "coding": [
                                        {
                                            "system": "http://terminology.hl7.org/CodeSystem/adjudication",
                                            "code": "copay"
                                        }
                                    ]
                                },
                                "amount": {
                                    "value": 100,
                                    "currency": "SAR"
                                }
                            },
                            {
                                "category": {
                                    "coding": [
                                        {
                                            "system": "http://nphies.sa/terminology/CodeSystem/ksa-adjudication",
                                            "code": "approved-quantity"
                                        }
                                    ]
                                },
                                "value": 1
                            },
                            {
                                "category": {
                                    "coding": [
                                        {
                                            "system": "http://terminology.hl7.org/CodeSystem/adjudication",
                                            "code": "benefit"
                                        }
                                    ]
                                },
                                "amount": {
                                    "value": 150,
                                    "currency": "SAR"
                                }
                            }
                        ]
                    }
                ],
                "total": [
                    {
                        "category": {
                            "coding": [
                                {
                                    "system": "http://terminology.hl7.org/CodeSystem/adjudication",
                                    "code": "eligible"
                                }
                            ]
                        },
                        "amount": {
                            "value": 250,
                            "currency": "SAR"
                        }
                    },
                    {
                        "category": {
                            "coding": [
                                {
                                    "system": "http://terminology.hl7.org/CodeSystem/adjudication",
                                    "code": "copay"
                                }
                            ]
                        },
                        "amount": {
                            "value": 100,
                            "currency": "SAR"
                        }
                    },
                    {
                        "category": {
                            "coding": [
                                {
                                    "system": "http://terminology.hl7.org/CodeSystem/adjudication",
                                    "code": "benefit"
                                }
                            ]
                        },
                        "amount": {
                            "value": 150,
                            "currency": "SAR"
                        }
                    }
                ],
                "insurance": [
                    {
                        "sequence": 1,
                        "focal": false,
                        "coverage": {
                            "reference": "http://pseudo-payer.com.sa/Coverage/6"
                        }
                    }
                ]
            },
            "fullUrl": "http://pseudo-payer.com.sa/ClaimResponse/1711551611694"
        },
        {
            "resource": {
                "resourceType": "Organization",
                "id": 8,
                "meta": {
                    "profile": [
                        "http://nphies.sa/fhir/ksa/nphies-fs/StructureDefinition/provider-organization|1.0.0"
                    ]
                },
                "extension": [
                    {
                        "url": "http://nphies.sa/fhir/ksa/nphies-fs/StructureDefinition/extension-provider-type",
                        "valueCodeableConcept": {
                            "coding": [
                                {
                                    "system": "http://nphies.sa/terminology/CodeSystem/provider-type",
                                    "code": "5",
                                    "display": "Clinic"
                                }
                            ]
                        }
                    }
                ],
                "identifier": [
                    {
                        "system": "http://nphies.sa/license/provider-license",
                        "value": "PR-FHIR"
                    }
                ],
                "name": "Test Provider",
                "active": true,
                "type": [
                    {
                        "coding": [
                            {
                                "system": "http://nphies.sa/terminology/CodeSystem/organization-type",
                                "code": "prov"
                            }
                        ]
                    }
                ]
            },
            "fullUrl": "http://pseudo-payer.com.sa/Organization/8"
        },
        {
            "resource": {
                "resourceType": "Organization",
                "id": 9,
                "meta": {
                    "profile": [
                        "http://nphies.sa/fhir/ksa/nphies-fs/StructureDefinition/insurer-organization|1.0.0"
                    ]
                },
                "identifier": [
                    {
                        "use": "official",
                        "system": "http://nphies.sa/license/payer-license",
                        "value": "INS-FHIR"
                    }
                ],
                "name": "INS-FHIR",
                "active": true,
                "type": [
                    {
                        "coding": [
                            {
                                "system": "http://nphies.sa/terminology/CodeSystem/organization-type",
                                "code": "ins"
                            }
                        ]
                    }
                ]
            },
            "fullUrl": "http://pseudo-payer.com.sa/Organization/9"
        },
        {
            "fullUrl": "http://pseudo-payer.com.sa/Patient/7",
            "resource": {
                "resourceType": "Patient",
                "id": "7",
                "meta": {
                    "profile": [
                        "http://nphies.sa/fhir/ksa/nphies-fs/StructureDefinition/patient|1.0.0"
                    ]
                },
                "extension": [
                    {
                        "valueCodeableConcept": {
                            "coding": [
                                {
                                    "system": "http://nphies.sa/terminology/CodeSystem/occupation",
                                    "code": "business",
                                    "display": "Business"
                                }
                            ]
                        },
                        "url": "http://nphies.sa/fhir/ksa/nphies-fs/StructureDefinition/extension-occupation"
                    }
                ],
                "identifier": [
                    {
                        "system": "http://nphies.sa/identifier/iqama",
                        "type": {
                            "coding": [
                                {
                                    "system": "http://terminology.hl7.org/CodeSystem/v2-0203",
                                    "code": "PRC",
                                    "display": "Permanent Resident Card Number"
                                }
                            ]
                        },
                        "value": "2052875726"
                    }
                ],
                "gender": "male",
                "_gender": {
                    "extension": [
                        {
                            "valueCodeableConcept": {
                                "coding": [
                                    {
                                        "system": "http://nphies.sa/terminology/CodeSystem/ksa-administrative-gender",
                                        "code": "male",
                                        "display": "Male"
                                    }
                                ]
                            },
                            "url": "http://nphies.sa/fhir/ksa/nphies-fs/StructureDefinition/extension-ksa-administrative-gender"
                        }
                    ]
                },
                "name": [
                    {
                        "use": "official",
                        "text": "Ahmad Khaled Abbas",
                        "family": "Ahmad",
                        "given": [
                            "Khaled",
                            "Abbas"
                        ]
                    }
                ],
                "active": true,
                "birthDate": "1990-09-29",
                "maritalStatus": {
                    "coding": [
                        {
                            "system": "http://terminology.hl7.org/CodeSystem/v3-MaritalStatus",
                            "code": "U"
                        }
                    ]
                }
            }
        },
        {
            "fullUrl": "http://pseudo-payer.com.sa/Coverage/6",
            "resource": {
                "resourceType": "Coverage",
                "id": "6",
                "status": "active",
                "meta": {
                    "profile": [
                        "http://nphies.sa/fhir/ksa/nphies-fs/StructureDefinition/coverage|1.0.0"
                    ]
                },
                "type": {
                    "coding": [
                        {
                            "system": "http://nphies.sa/terminology/CodeSystem/coverage-type",
                            "code": "EHCPOL",
                            "display": "extended healthcare"
                        }
                    ]
                },
                "identifier": [
                    {
                        "system": "http://pseudo-payer.com.sa/memberid",
                        "value": "1711551611694"
                    }
                ],
                "relationship": {
                    "coding": [
                        {
                            "system": "http://terminology.hl7.org/CodeSystem/subscriber-relationship",
                            "code": "self",
                            "display": "Self"
                        }
                    ]
                },
                "payor": [
                    {
                        "reference": "http://pseudo-payer.com.sa/Organization/9"
                    }
                ],
                "beneficiary": {
                    "reference": "http://pseudo-payer.com.sa/Patient/7"
                },
                "class": [
                    {
                        "type": {
                            "coding": [
                                {
                                    "system": "http://terminology.hl7.org/CodeSystem/coverage-class",
                                    "code": "plan"
                                }
                            ]
                        },
                        "value": "456678"
                    }
                ],
                "policyHolder": {
                    "reference": "http://pseudo-payer.com.sa/Organization/10"
                }
            }
        }
    ]
}