{
    "resourceType": "Bundle",
    "id": "0fccefed-7255-45a7-a3c3-6b5d6d22c644",
    "meta": {
        "profile": [
            "http://nphies.sa/fhir/ksa/nphies-fs/StructureDefinition/bundle|1.0.0"
        ]
    },
    "type": "message",
    "timestamp": "2023-12-05T11:49:18.573+00:00",
    "entry": [
        {
            "fullUrl": "http://pseudo-payer.com.sa/MessageHeader/fd824faf-364a-4019-8788-8f13195e73b1",
            "resource": {
                "resourceType": "MessageHeader",
                "id": "fd824faf-364a-4019-8788-8f13195e73b1",
                "meta": {
                    "profile": [
                        "http://nphies.sa/fhir/ksa/nphies-fs/StructureDefinition/message-header|1.0.0"
                    ]
                },
                "eventCoding": {
                    "system": "http://nphies.sa/terminology/CodeSystem/ksa-message-events",
                    "code": "priorauth-response"
                },
                "destination": [
                    {
                        "endpoint": "http://provider.com",
                        "receiver": {
                            "type": "Organization",
                            "identifier": {
                                "system": "http://nphies.sa/license/provider-license",
                                "value": "PR-FHIR"
                            }
                        }
                    }
                ],
                "sender": {
                    "type": "Organization",
                    "identifier": {
                        "system": "http://nphies.sa/license/payer-license",
                        "value": "INS-FHIR"
                    }
                },
                "source": {
                    "endpoint": "http://payer.com"
                },
                "response": {
                    "identifier": "f4a14305-a9af-427d-9f1c-64c8e2d93073",
                    "code": "ok"
                },
                "focus": [
                    {
                        "reference": "http://pseudo-payer.com.sa/ClaimResponse/123073"
                    }
                ]
            }
        },
        {
            "fullUrl": "http://pseudo-payer.com.sa/ClaimResponse/123073",
            "resource": {
                "resourceType": "ClaimResponse",
                "id": "123073",
                "meta": {
                    "profile": [
                        "http://nphies.sa/fhir/ksa/nphies-fs/StructureDefinition/prior-auth-response|1.0.0"
                    ]
                },
                "extension": [
                    {
                        "url": "http://nphies.sa/fhir/ksa/nphies-fs/StructureDefinition/extension-adjudication-outcome",
                        "valueCodeableConcept": {
                            "coding": [
                                {
                                    "system": "http://nphies.sa/terminology/CodeSystem/adjudication-outcome",
                                    "code": "approved"
                                }
                            ]
                        }
                    }
                ],
                "identifier": [
                    {
                        "system": "http://pseudo-payer.com.sa/claimresponse",
                        "value": "res_220315"
                    }
                ],
                "status": "active",
                "type": {
                    "coding": [
                        {
                            "system": "http://terminology.hl7.org/CodeSystem/claim-type",
                            "code": "vision"
                        }
                    ]
                },
                "subType": {
                    "coding": [
                        {
                            "system": "http://nphies.sa/terminology/CodeSystem/claim-subtype",
                            "code": "op"
                        }
                    ]
                },
                "use": "preauthorization",
                "patient": {
                    "reference": "http://provider.com.sa/Patient/3"
                },
                "created": "2023-12-05",
                "insurer": {
                    "reference": "http://provider.com.sa/Organization/11"
                },
                "requestor": {
                    "reference": "http://provider.com.sa/Organization/10"
                },
                "request": {
                    "type": "Claim",
                    "identifier": {
                        "system": "http://provider.com.sa/authorization",
                        "value": "req_9123073"
                    }
                },
                "outcome": "complete",
                "preAuthRef": "Auth_1234",
                "preAuthPeriod": {
                    "start": "2023-12-05",
                    "end": "2024-01-05"
                },
                "item": [
                    {
                        "extension": [
                            {
                                "url": "http://nphies.sa/fhir/ksa/nphies-fs/StructureDefinition/extension-adjudication-outcome",
                                "valueCodeableConcept": {
                                    "coding": [
                                        {
                                            "system": "http://nphies.sa/terminology/CodeSystem/adjudication-outcome",
                                            "code": "approved"
                                        }
                                    ]
                                }
                            }
                        ],
                        "itemSequence": 1,
                        "adjudication": [
                            {
                                "category": {
                                    "coding": [
                                        {
                                            "system": "http://terminology.hl7.org/CodeSystem/adjudication",
                                            "code": "eligible"
                                        }
                                    ]
                                },
                                "amount": {
                                    "value": 400,
                                    "currency": "SAR"
                                }
                            },
                            {
                                "category": {
                                    "coding": [
                                        {
                                            "system": "http://terminology.hl7.org/CodeSystem/adjudication",
                                            "code": "copay"
                                        }
                                    ]
                                },
                                "amount": {
                                    "value": 0,
                                    "currency": "SAR"
                                }
                            },
                            {
                                "category": {
                                    "coding": [
                                        {
                                            "system": "http://terminology.hl7.org/CodeSystem/adjudication",
                                            "code": "benefit"
                                        }
                                    ]
                                },
                                "amount": {
                                    "value": 400,
                                    "currency": "SAR"
                                }
                            },
                            {
                                "category": {
                                    "coding": [
                                        {
                                            "system": "http://nphies.sa/terminology/CodeSystem/ksa-adjudication",
                                            "code": "approved-quantity"
                                        }
                                    ]
                                },
                                "value": 1
                            }
                        ]
                    }
                ],
                "total": [
                    {
                        "category": {
                            "coding": [
                                {
                                    "system": "http://terminology.hl7.org/CodeSystem/adjudication",
                                    "code": "eligible"
                                }
                            ]
                        },
                        "amount": {
                            "value": 400,
                            "currency": "SAR"
                        }
                    },
                    {
                        "category": {
                            "coding": [
                                {
                                    "system": "http://terminology.hl7.org/CodeSystem/adjudication",
                                    "code": "benefit"
                                }
                            ]
                        },
                        "amount": {
                            "value": 400,
                            "currency": "SAR"
                        }
                    },
                    {
                        "category": {
                            "coding": [
                                {
                                    "system": "http://terminology.hl7.org/CodeSystem/adjudication",
                                    "code": "copay"
                                }
                            ]
                        },
                        "amount": {
                            "value": 0,
                            "currency": "SAR"
                        }
                    }
                ],
                "insurance": [
                    {
                        "sequence": 1,
                        "focal": true,
                        "coverage": {
                            "reference": "http://provider.com.sa/Coverage/3"
                        }
                    }
                ]
            }
        },
        {
            "fullUrl": "http://provider.com.sa/Patient/3",
            "resource": {
                "resourceType": "Patient",
                "id": "3",
                "meta": {
                    "profile": [
                        "http://nphies.sa/fhir/ksa/nphies-fs/StructureDefinition/patient|1.0.0"
                    ]
                },
                "extension": [
                    {
                        "url": "http://nphies.sa/fhir/ksa/nphies-fs/StructureDefinition/extension-occupation",
                        "valueCodeableConcept": {
                            "coding": [
                                {
                                    "system": "http://nphies.sa/terminology/CodeSystem/occupation",
                                    "code": "housewife"
                                }
                            ]
                        }
                    }
                ],
                "identifier": [
                    {
                        "type": {
                            "coding": [
                                {
                                    "system": "http://terminology.hl7.org/CodeSystem/v2-0203",
                                    "code": "PRC"
                                }
                            ]
                        },
                        "system": "http://nphies.sa/identifier/iqama",
                        "value": "2000000003"
                    }
                ],
                "active": true,
                "name": [
                    {
                        "text": "Sara Khan",
                        "family": "Khan",
                        "given": [
                            "Sara"
                        ]
                    }
                ],
                "gender": "female",
                "_gender": {
                    "extension": [
                        {
                            "url": "http://nphies.sa/fhir/ksa/nphies-fs/StructureDefinition/extension-ksa-administrative-gender",
                            "valueCodeableConcept": {
                                "coding": [
                                    {
                                        "system": "http://nphies.sa/terminology/CodeSystem/ksa-administrative-gender",
                                        "code": "female"
                                    }
                                ]
                            }
                        }
                    ]
                },
                "birthDate": "1974-03-13",
                "maritalStatus": {
                    "coding": [
                        {
                            "system": "http://terminology.hl7.org/CodeSystem/v3-MaritalStatus",
                            "code": "M"
                        }
                    ]
                }
            }
        },
        {
            "fullUrl": "http://provider.com.sa/Patient/123454186",
            "resource": {
                "resourceType": "Patient",
                "id": "123454186",
                "meta": {
                    "profile": [
                        "http://nphies.sa/fhir/ksa/nphies-fs/StructureDefinition/patient|1.0.0"
                    ]
                },
                "extension": [
                    {
                        "url": "http://nphies.sa/fhir/ksa/nphies-fs/StructureDefinition/extension-occupation",
                        "valueCodeableConcept": {
                            "coding": [
                                {
                                    "system": "http://nphies.sa/terminology/CodeSystem/occupation",
                                    "code": "business"
                                }
                            ]
                        }
                    }
                ],
                "identifier": [
                    {
                        "type": {
                            "coding": [
                                {
                                    "system": "http://terminology.hl7.org/CodeSystem/v2-0203",
                                    "code": "PRC",
                                    "display": "Permanent Resident Card Number"
                                }
                            ]
                        },
                        "system": "http://nphies.sa/identifier/iqama",
                        "value": "2000000001"
                    }
                ],
                "active": true,
                "name": [
                    {
                        "use": "official",
                        "text": "Ahmad Khaled Abbas",
                        "family": "Ahmad",
                        "given": [
                            "Khaled",
                            "Abbas"
                        ]
                    }
                ],
                "telecom": [
                    {
                        "system": "phone",
                        "value": "+966512345691"
                    }
                ],
                "gender": "male",
                "_gender": {
                    "extension": [
                        {
                            "url": "http://nphies.sa/fhir/ksa/nphies-fs/StructureDefinition/extension-ksa-administrative-gender",
                            "valueCodeableConcept": {
                                "coding": [
                                    {
                                        "system": "http://nphies.sa/terminology/CodeSystem/ksa-administrative-gender",
                                        "code": "male",
                                        "display": "Male"
                                    }
                                ]
                            }
                        }
                    ]
                },
                "birthDate": "1984-12-25",
                "maritalStatus": {
                    "coding": [
                        {
                            "system": "http://terminology.hl7.org/CodeSystem/v3-MaritalStatus",
                            "code": "M"
                        }
                    ]
                }
            }
        },
        {
            "fullUrl": "http://provider.com.sa/Organization/10",
            "resource": {
                "resourceType": "Organization",
                "id": "10",
                "meta": {
                    "profile": [
                        "http://nphies.sa/fhir/ksa/nphies-fs/StructureDefinition/provider-organization|1.0.0"
                    ]
                },
                "extension": [
                    {
                        "url": "http://nphies.sa/fhir/ksa/nphies-fs/StructureDefinition/extension-provider-type",
                        "valueCodeableConcept": {
                            "coding": [
                                {
                                    "system": "http://nphies.sa/terminology/CodeSystem/provider-type",
                                    "code": "5",
                                    "display": "Clinic"
                                }
                            ]
                        }
                    }
                ],
                "identifier": [
                    {
                        "use": "official",
                        "system": "http://nphies.sa/license/provider-license",
                        "value": "PR-FHIR"
                    }
                ],
                "active": true,
                "type": [
                    {
                        "coding": [
                            {
                                "system": "http://nphies.sa/terminology/CodeSystem/organization-type",
                                "code": "prov"
                            }
                        ]
                    }
                ],
                "name": "Test Provider"
            }
        },
        {
            "fullUrl": "http://provider.com.sa/Organization/11",
            "resource": {
                "resourceType": "Organization",
                "id": "11",
                "meta": {
                    "profile": [
                        "http://nphies.sa/fhir/ksa/nphies-fs/StructureDefinition/insurer-organization|1.0.0"
                    ]
                },
                "identifier": [
                    {
                        "use": "official",
                        "system": "http://nphies.sa/license/payer-license",
                        "value": "INS-FHIR"
                    }
                ],
                "active": true,
                "type": [
                    {
                        "coding": [
                            {
                                "system": "http://nphies.sa/terminology/CodeSystem/organization-type",
                                "code": "ins"
                            }
                        ]
                    }
                ],
                "name": "Test Payer"
            }
        },
        {
            "fullUrl": "http://provider.com.sa/Organization/13",
            "resource": {
                "resourceType": "Organization",
                "id": "13",
                "meta": {
                    "profile": [
                        "http://nphies.sa/fhir/ksa/nphies-fs/StructureDefinition/policyholder-organization|1.0.0"
                    ]
                },
                "identifier": [
                    {
                        "system": "http://nphies.sa/identifier/organization",
                        "value": "5009"
                    }
                ],
                "active": true,
                "name": "Policy Holder Organization"
            }
        },
        {
            "fullUrl": "http://provider.com.sa/Coverage/3",
            "resource": {
                "resourceType": "Coverage",
                "id": "3",
                "meta": {
                    "profile": [
                        "http://nphies.sa/fhir/ksa/nphies-fs/StructureDefinition/coverage|1.0.0"
                    ]
                },
                "identifier": [
                    {
                        "system": "http://pseudo-payer.com.sa/memberid",
                        "value": "0000000003"
                    }
                ],
                "status": "active",
                "type": {
                    "coding": [
                        {
                            "system": "http://nphies.sa/terminology/CodeSystem/coverage-type",
                            "code": "EHCPOL",
                            "display": "extended healthcare"
                        }
                    ]
                },
                "policyHolder": {
                    "reference": "http://provider.com.sa/Organization/13"
                },
                "subscriber": {
                    "reference": "http://provider.com.sa/Patient/123454186"
                },
                "beneficiary": {
                    "reference": "http://provider.com.sa/Patient/3"
                },
                "relationship": {
                    "coding": [
                        {
                            "system": "http://terminology.hl7.org/CodeSystem/subscriber-relationship",
                            "code": "spouse",
                            "display": "Spouse"
                        }
                    ]
                },
                "payor": [
                    {
                        "reference": "http://provider.com.sa/Organization/11"
                    }
                ],
                "class": [
                    {
                        "type": {
                            "coding": [
                                {
                                    "system": "http://terminology.hl7.org/CodeSystem/coverage-class",
                                    "code": "group"
                                }
                            ]
                        },
                        "value": "CB135",
                        "name": "Insurance Group A"
                    },
                    {
                        "type": {
                            "coding": [
                                {
                                    "system": "http://terminology.hl7.org/CodeSystem/coverage-class",
                                    "code": "plan"
                                }
                            ]
                        },
                        "value": "ABC123",
                        "name": "Insurance Group A"
                    }
                ],
                "network": "Golden C"
            }
        }
    ]
}