{
  "resourceType": "Bundle",
  "id": "641b506d-c0fe-4c43-8ec0-3add9a2c441c",
  "meta": {
    "profile": [
      "http://nphies.sa/fhir/ksa/nphies-fs/StructureDefinition/bundle|1.0.0"
    ]
  },
  "type": "message",
  "timestamp": "2023-12-05T12:55:11.415+00:00",
  "entry": [
    {
      "fullUrl": "http://pseudo-payer.com.sa/MessageHeader/cc3a3a50-d4b4-4121-8936-404df9c17c1c",
      "resource": {
        "resourceType": "MessageHeader",
        "id": "cc3a3a50-d4b4-4121-8936-404df9c17c1c",
        "meta": {
          "profile": [
            "http://nphies.sa/fhir/ksa/nphies-fs/StructureDefinition/message-header|1.0.0"
          ]
        },
        "eventCoding": {
          "system": "http://nphies.sa/terminology/CodeSystem/ksa-message-events",
          "code": "priorauth-response"
        },
        "destination": [
          {
            "endpoint": "http://provider.com",
            "receiver": {
              "type": "Organization",
              "identifier": {
                "system": "http://nphies.sa/license/provider-license",
                "value": "PR-FHIR"
              }
            }
          }
        ],
        "sender": {
          "type": "Organization",
          "identifier": {
            "system": "http://nphies.sa/license/payer-license",
            "value": "INS-FHIR"
          }
        },
        "source": {
          "endpoint": "http://payer.com"
        },
        "response": {
          "identifier": "d2f4ecea-e519-4f65-b21b-979ff7c33093",
          "code": "ok"
        },
        "focus": [
          {
            "reference": "http://pseudo-payer.com.sa/ClaimResponse/293093"
          }
        ]
      }
    },
    {
      "fullUrl": "http://pseudo-payer.com.sa/ClaimResponse/293093",
      "resource": {
        "resourceType": "ClaimResponse",
        "id": "293093",
        "meta": {
          "profile": [
            "http://nphies.sa/fhir/ksa/nphies-fs/StructureDefinition/prior-auth-response|1.0.0"
          ]
        },
        "extension": [
          {
            "url": "http://nphies.sa/fhir/ksa/nphies-fs/StructureDefinition/extension-adjudication-outcome",
            "valueCodeableConcept": {
              "coding": [
                {
                  "system": "http://nphies.sa/terminology/CodeSystem/adjudication-outcome",
                  "code": "partial"
                }
              ]
            }
          }
        ],
        "identifier": [
          {
            "system": "http://pseudo-payer.com.sa/claimresponse",
            "value": "res_8802252530"
          }
        ],
        "status": "active",
        "type": {
          "coding": [
            {
              "system": "http://terminology.hl7.org/CodeSystem/claim-type",
              "code": "oral"
            }
          ]
        },
        "subType": {
          "coding": [
            {
              "system": "http://nphies.sa/terminology/CodeSystem/claim-subtype",
              "code": "op"
            }
          ]
        },
        "use": "preauthorization",
        "patient": {
          "reference": "http://provider.com.sa/Patient/3"
        },
        "created": "2023-12-05",
        "insurer": {
          "reference": "http://provider.com.sa/Organization/bff3aa1fbd3648619ac082357bf135db"
        },
        "requestor": {
          "reference": "http://provider.com.sa/Organization/b1b3432921324f97af3be9fd0b1a14ae"
        },
        "request": {
          "type": "Claim",
          "identifier": {
            "system": "http://provider.com.sa/authorization",
            "value": "req_293093"
          }
        },
        "outcome": "complete",
        "preAuthRef": "Auth_20238974",
        "preAuthPeriod": {
          "start": "2023-12-05",
          "end": "2024-01-05"
        },
        "item": [
          {
            "extension": [
              {
                "url": "http://nphies.sa/fhir/ksa/nphies-fs/StructureDefinition/extension-adjudication-outcome",
                "valueCodeableConcept": {
                  "coding": [
                    {
                      "system": "http://nphies.sa/terminology/CodeSystem/adjudication-outcome",
                      "code": "approved"
                    }
                  ]
                }
              }
            ],
            "itemSequence": 1,
            "adjudication": [
              {
                "category": {
                  "coding": [
                    {
                      "system": "http://terminology.hl7.org/CodeSystem/adjudication",
                      "code": "submitted"
                    }
                  ]
                },
                "amount": {
                  "value": 200,
                  "currency": "SAR"
                }
              },
              {
                "category": {
                  "coding": [
                    {
                      "system": "http://terminology.hl7.org/CodeSystem/adjudication",
                      "code": "eligible"
                    }
                  ]
                },
                "amount": {
                  "value": 200,
                  "currency": "SAR"
                }
              },
              {
                "category": {
                  "coding": [
                    {
                      "system": "http://terminology.hl7.org/CodeSystem/adjudication",
                      "code": "copay"
                    }
                  ]
                },
                "amount": {
                  "value": 40,
                  "currency": "SAR"
                }
              },
              {
                "category": {
                  "coding": [
                    {
                      "system": "http://terminology.hl7.org/CodeSystem/adjudication",
                      "code": "benefit"
                    }
                  ]
                },
                "amount": {
                  "value": 160,
                  "currency": "SAR"
                }
              },
              {
                "category": {
                  "coding": [
                    {
                      "system": "http://nphies.sa/terminology/CodeSystem/ksa-adjudication",
                      "code": "approved-quantity"
                    }
                  ]
                },
                "value": 1
              },
              {
                "category": {
                  "coding": [
                    {
                      "system": "http://nphies.sa/terminology/CodeSystem/ksa-adjudication",
                      "code": "patientShare"
                    }
                  ]
                },
                "amount": {
                  "value": 40,
                  "currency": "SAR"
                }
              }
            ]
          },
          {
            "extension": [
              {
                "url": "http://nphies.sa/fhir/ksa/nphies-fs/StructureDefinition/extension-adjudication-outcome",
                "valueCodeableConcept": {
                  "coding": [
                    {
                      "system": "http://nphies.sa/terminology/CodeSystem/adjudication-outcome",
                      "code": "approved"
                    }
                  ]
                }
              }
            ],
            "itemSequence": 2,
            "adjudication": [
              {
                "category": {
                  "coding": [
                    {
                      "system": "http://terminology.hl7.org/CodeSystem/adjudication",
                      "code": "submitted"
                    }
                  ]
                },
                "amount": {
                  "value": 300,
                  "currency": "SAR"
                }
              },
              {
                "category": {
                  "coding": [
                    {
                      "system": "http://terminology.hl7.org/CodeSystem/adjudication",
                      "code": "eligible"
                    }
                  ]
                },
                "amount": {
                  "value": 300,
                  "currency": "SAR"
                }
              },
              {
                "category": {
                  "coding": [
                    {
                      "system": "http://terminology.hl7.org/CodeSystem/adjudication",
                      "code": "copay"
                    }
                  ]
                },
                "amount": {
                  "value": 60,
                  "currency": "SAR"
                }
              },
              {
                "category": {
                  "coding": [
                    {
                      "system": "http://terminology.hl7.org/CodeSystem/adjudication",
                      "code": "benefit"
                    }
                  ]
                },
                "amount": {
                  "value": 240,
                  "currency": "SAR"
                }
              },
              {
                "category": {
                  "coding": [
                    {
                      "system": "http://nphies.sa/terminology/CodeSystem/ksa-adjudication",
                      "code": "approved-quantity"
                    }
                  ]
                },
                "value": 1
              },
              {
                "category": {
                  "coding": [
                    {
                      "system": "http://nphies.sa/terminology/CodeSystem/ksa-adjudication",
                      "code": "patientShare"
                    }
                  ]
                },
                "amount": {
                  "value": 60,
                  "currency": "SAR"
                }
              }
            ]
          },
          {
            "extension": [
              {
                "url": "http://nphies.sa/fhir/ksa/nphies-fs/StructureDefinition/extension-adjudication-outcome",
                "valueCodeableConcept": {
                  "coding": [
                    {
                      "system": "http://nphies.sa/terminology/CodeSystem/adjudication-outcome",
                      "code": "rejected"
                    }
                  ]
                }
              }
            ],
            "itemSequence": 3,
            "adjudication": [
              {
                "category": {
                  "coding": [
                    {
                      "system": "http://terminology.hl7.org/CodeSystem/adjudication",
                      "code": "submitted"
                    }
                  ]
                },
                "amount": {
                  "value": 1300,
                  "currency": "SAR"
                }
              },
              {
                "category": {
                  "coding": [
                    {
                      "system": "http://terminology.hl7.org/CodeSystem/adjudication",
                      "code": "eligible"
                    }
                  ]
                },
                "amount": {
                  "value": 0,
                  "currency": "SAR"
                }
              },
              {
                "category": {
                  "coding": [
                    {
                      "system": "http://terminology.hl7.org/CodeSystem/adjudication",
                      "code": "benefit"
                    }
                  ]
                },
                "amount": {
                  "value": 0,
                  "currency": "SAR"
                },
                "reason": {
                  "coding": [
                    {
                      "system": "http://nphies.sa/terminology/CodeSystem/adjudication-reason",
                      "code": "N-DC-074",
                      "display": "Service(s) is (are) not performed (used after audit)"
                    }
                  ]
                }
              },
              {
                "category": {
                  "coding": [
                    {
                      "system": "http://nphies.sa/terminology/CodeSystem/ksa-adjudication",
                      "code": "patientShare"
                    }
                  ]
                },
                "amount": {
                  "value": 1300,
                  "currency": "SAR"
                }
              },
              {
                "category": {
                  "coding": [
                    {
                      "system": "http://nphies.sa/terminology/CodeSystem/ksa-adjudication",
                      "code": "approved-quantity"
                    }
                  ]
                },
                "value": 0
              }
            ]
          }
        ],
        "total": [
          {
            "category": {
              "coding": [
                {
                  "system": "http://terminology.hl7.org/CodeSystem/adjudication",
                  "code": "submitted"
                }
              ]
            },
            "amount": {
              "value": 1800,
              "currency": "SAR"
            }
          },
          {
            "category": {
              "coding": [
                {
                  "system": "http://terminology.hl7.org/CodeSystem/adjudication",
                  "code": "eligible"
                }
              ]
            },
            "amount": {
              "value": 500,
              "currency": "SAR"
            }
          },
          {
            "category": {
              "coding": [
                {
                  "system": "http://terminology.hl7.org/CodeSystem/adjudication",
                  "code": "benefit"
                }
              ]
            },
            "amount": {
              "value": 400,
              "currency": "SAR"
            }
          },
          {
            "category": {
              "coding": [
                {
                  "system": "http://nphies.sa/terminology/CodeSystem/ksa-adjudication",
                  "code": "patientShare"
                }
              ]
            },
            "amount": {
              "value": 1400,
              "currency": "SAR"
            }
          }
        ],
        "insurance": [
          {
            "sequence": 1,
            "focal": true,
            "coverage": {
              "reference": "http://provider.com.sa/Coverage/3"
            }
          }
        ]
      }
    },
    {
      "fullUrl": "http://provider.com.sa/Patient/3",
      "resource": {
        "resourceType": "Patient",
        "id": "3",
        "meta": {
          "profile": [
            "http://nphies.sa/fhir/ksa/nphies-fs/StructureDefinition/patient|1.0.0"
          ]
        },
        "extension": [
          {
            "url": "http://nphies.sa/fhir/ksa/nphies-fs/StructureDefinition/extension-occupation",
            "valueCodeableConcept": {
              "coding": [
                {
                  "system": "http://nphies.sa/terminology/CodeSystem/occupation",
                  "code": "housewife"
                }
              ]
            }
          }
        ],
        "identifier": [
          {
            "type": {
              "coding": [
                {
                  "system": "http://terminology.hl7.org/CodeSystem/v2-0203",
                  "code": "PRC"
                }
              ]
            },
            "system": "http://nphies.sa/identifier/iqama",
            "value": "2000000003"
          }
        ],
        "active": true,
        "name": [
          {
            "text": "Sara Khan",
            "family": "Khan",
            "given": [
              "Sara"
            ]
          }
        ],
        "gender": "female",
        "_gender": {
          "extension": [
            {
              "url": "http://nphies.sa/fhir/ksa/nphies-fs/StructureDefinition/extension-ksa-administrative-gender",
              "valueCodeableConcept": {
                "coding": [
                  {
                    "system": "http://nphies.sa/terminology/CodeSystem/ksa-administrative-gender",
                    "code": "female"
                  }
                ]
              }
            }
          ]
        },
        "birthDate": "1974-03-13",
        "maritalStatus": {
          "coding": [
            {
              "system": "http://terminology.hl7.org/CodeSystem/v3-MaritalStatus",
              "code": "M"
            }
          ]
        }
      }
    },
    {
      "fullUrl": "http://provider.com.sa/Patient/123454186",
      "resource": {
        "resourceType": "Patient",
        "id": "123454186",
        "meta": {
          "profile": [
            "http://nphies.sa/fhir/ksa/nphies-fs/StructureDefinition/patient|1.0.0"
          ]
        },
        "extension": [
          {
            "url": "http://nphies.sa/fhir/ksa/nphies-fs/StructureDefinition/extension-occupation",
            "valueCodeableConcept": {
              "coding": [
                {
                  "system": "http://nphies.sa/terminology/CodeSystem/occupation",
                  "code": "business"
                }
              ]
            }
          }
        ],
        "identifier": [
          {
            "type": {
              "coding": [
                {
                  "system": "http://terminology.hl7.org/CodeSystem/v2-0203",
                  "code": "PRC",
                  "display": "Permanent Resident Card Number"
                }
              ]
            },
            "system": "http://nphies.sa/identifier/iqama",
            "value": "2000000001"
          }
        ],
        "active": true,
        "name": [
          {
            "use": "official",
            "text": "Ahmad Khaled Abbas",
            "family": "Ahmad",
            "given": [
              "Khaled",
              "Abbas"
            ]
          }
        ],
        "telecom": [
          {
            "system": "phone",
            "value": "+966512345691"
          }
        ],
        "gender": "male",
        "_gender": {
          "extension": [
            {
              "url": "http://nphies.sa/fhir/ksa/nphies-fs/StructureDefinition/extension-ksa-administrative-gender",
              "valueCodeableConcept": {
                "coding": [
                  {
                    "system": "http://nphies.sa/terminology/CodeSystem/ksa-administrative-gender",
                    "code": "male",
                    "display": "Male"
                  }
                ]
              }
            }
          ]
        },
        "birthDate": "1984-12-25",
        "maritalStatus": {
          "coding": [
            {
              "system": "http://terminology.hl7.org/CodeSystem/v3-MaritalStatus",
              "code": "M"
            }
          ]
        }
      }
    },
    {
      "fullUrl": "http://provider.com.sa/Organization/b1b3432921324f97af3be9fd0b1a14ae",
      "resource": {
        "resourceType": "Organization",
        "id": "b1b3432921324f97af3be9fd0b1a14ae",
        "meta": {
          "profile": [
            "http://nphies.sa/fhir/ksa/nphies-fs/StructureDefinition/provider-organization|1.0.0"
          ]
        },
        "extension": [
          {
            "url": "http://nphies.sa/fhir/ksa/nphies-fs/StructureDefinition/extension-provider-type",
            "valueCodeableConcept": {
              "coding": [
                {
                  "system": "http://nphies.sa/terminology/CodeSystem/provider-type",
                  "code": "5",
                  "display": "Clinic"
                }
              ]
            }
          }
        ],
        "identifier": [
          {
            "system": "http://nphies.sa/license/provider-license",
            "value": "PR-FHIR"
          }
        ],
        "active": true,
        "type": [
          {
            "coding": [
              {
                "system": "http://nphies.sa/terminology/CodeSystem/organization-type",
                "code": "prov"
              }
            ]
          }
        ],
        "name": "Test Provider"
      }
    },
    {
      "fullUrl": "http://provider.com.sa/Organization/bff3aa1fbd3648619ac082357bf135db",
      "resource": {
        "resourceType": "Organization",
        "id": "bff3aa1fbd3648619ac082357bf135db",
        "meta": {
          "profile": [
            "http://nphies.sa/fhir/ksa/nphies-fs/StructureDefinition/insurer-organization|1.0.0"
          ]
        },
        "identifier": [
          {
            "system": "http://nphies.sa/license/payer-license",
            "value": "INS-FHIR"
          }
        ],
        "active": true,
        "type": [
          {
            "coding": [
              {
                "system": "http://nphies.sa/terminology/CodeSystem/organization-type",
                "code": "ins"
              }
            ]
          }
        ],
        "name": "Test Payer"
      }
    },
    {
      "fullUrl": "http://provider.com.sa/Organization/13",
      "resource": {
        "resourceType": "Organization",
        "id": "13",
        "meta": {
          "profile": [
            "http://nphies.sa/fhir/ksa/nphies-fs/StructureDefinition/policyholder-organization|1.0.0"
          ]
        },
        "identifier": [
          {
            "system": "http://nphies.sa/identifier/organization",
            "value": "5009"
          }
        ],
        "active": true,
        "name": "Policy Holder Organization"
      }
    },
    {
      "fullUrl": "http://provider.com.sa/Coverage/3",
      "resource": {
        "resourceType": "Coverage",
        "id": "3",
        "meta": {
          "profile": [
            "http://nphies.sa/fhir/ksa/nphies-fs/StructureDefinition/coverage|1.0.0"
          ]
        },
        "identifier": [
          {
            "system": "http://pseudo-payer.com.sa/memberid",
            "value": "0000000003"
          }
        ],
        "status": "active",
        "type": {
          "coding": [
            {
              "system": "http://nphies.sa/terminology/CodeSystem/coverage-type",
              "code": "EHCPOL",
              "display": "extended healthcare"
            }
          ]
        },
        "policyHolder": {
          "reference": "http://provider.com.sa/Organization/13"
        },
        "subscriber": {
          "reference": "http://provider.com.sa/Patient/123454186"
        },
        "beneficiary": {
          "reference": "http://provider.com.sa/Patient/3"
        },
        "relationship": {
          "coding": [
            {
              "system": "http://terminology.hl7.org/CodeSystem/subscriber-relationship",
              "code": "spouse",
              "display": "Spouse"
            }
          ]
        },
        "payor": [
          {
            "reference": "http://provider.com.sa/Organization/bff3aa1fbd3648619ac082357bf135db"
          }
        ],
        "class": [
          {
            "type": {
              "coding": [
                {
                  "system": "http://terminology.hl7.org/CodeSystem/coverage-class",
                  "code": "plan"
                }
              ]
            },
            "value": "ABC123",
            "name": "Insurance Plan A"
          }
        ],
        "network": "Golden C"
      }
    }
  ]
}