{
    "resourceType": "Bundle",
    "id": "4826a48e-4949-4af8-96ad-690370f20962",
    "meta": {
        "profile": [
            "http://nphies.sa/fhir/ksa/nphies-fs/StructureDefinition/bundle|1.0.0"
        ]
    },
    "type": "message",
    "timestamp": "2023-12-05T11:46:57.926+00:00",
    "entry": [
        {
            "fullUrl": "http://pseudo-payer.com.sa/MessageHeader/9cc64d31-544c-4272-b739-a428fefbefad",
            "resource": {
                "resourceType": "MessageHeader",
                "id": "9cc64d31-544c-4272-b739-a428fefbefad",
                "meta": {
                    "profile": [
                        "http://nphies.sa/fhir/ksa/nphies-fs/StructureDefinition/message-header|1.0.0"
                    ]
                },
                "eventCoding": {
                    "system": "http://nphies.sa/terminology/CodeSystem/ksa-message-events",
                    "code": "priorauth-response"
                },
                "destination": [
                    {
                        "endpoint": "http://provider.com",
                        "receiver": {
                            "type": "Organization",
                            "identifier": {
                                "system": "http://nphies.sa/license/provider-license",
                                "value": "PR-FHIR"
                            }
                        }
                    }
                ],
                "sender": {
                    "type": "Organization",
                    "identifier": {
                        "system": "http://nphies.sa/license/payer-license",
                        "value": "INS-FHIR"
                    }
                },
                "source": {
                    "endpoint": "http://pseudo-payer.com.sa"
                },
                "response": {
                    "identifier": "a7e4caf2-0441-40e5-97d2-5ae180273072",
                    "code": "ok"
                },
                "focus": [
                    {
                        "reference": "http://pseudo-payer.com.sa/ClaimResponse/483072"
                    }
                ]
            }
        },
        {
            "fullUrl": "http://pseudo-payer.com.sa/ClaimResponse/483072",
            "resource": {
                "resourceType": "ClaimResponse",
                "id": "483072",
                "meta": {
                    "profile": [
                        "http://nphies.sa/fhir/ksa/nphies-fs/StructureDefinition/prior-auth-response|1.0.0"
                    ]
                },
                "extension": [
                    {
                        "url": "http://nphies.sa/fhir/ksa/nphies-fs/StructureDefinition/extension-adjudication-outcome",
                        "valueCodeableConcept": {
                            "coding": [
                                {
                                    "system": "http://nphies.sa/terminology/CodeSystem/adjudication-outcome",
                                    "code": "approved"
                                }
                            ]
                        }
                    }
                ],
                "identifier": [
                    {
                        "system": "http://pseudo-payer.com.sa/claimresponse",
                        "value": "res_513322"
                    }
                ],
                "status": "active",
                "type": {
                    "coding": [
                        {
                            "system": "http://terminology.hl7.org/CodeSystem/claim-type",
                            "code": "institutional"
                        }
                    ]
                },
                "subType": {
                    "coding": [
                        {
                            "system": "http://nphies.sa/terminology/CodeSystem/claim-subtype",
                            "code": "ip"
                        }
                    ]
                },
                "use": "preauthorization",
                "patient": {
                    "reference": "http://provider.com/Patient/173826788"
                },
                "created": "2023-12-05",
                "insurer": {
                    "reference": "http://provider.com/Organization/bff3aa1fbd3648619ac082357bf135db"
                },
                "requestor": {
                    "reference": "http://provider.com/Organization/b1b3432921324f97af3be9fd0b1a14ae"
                },
                "request": {
                    "type": "Claim",
                    "identifier": {
                        "system": "http://provider.com/authorization",
                        "value": "req_112483072"
                    }
                },
                "outcome": "complete",
                "preAuthRef": "Auth48653",
                "preAuthPeriod": {
                    "start": "2023-12-05",
                    "end": "2023-12-20"
                },
                "item": [
                    {
                        "extension": [
                            {
                                "url": "http://nphies.sa/fhir/ksa/nphies-fs/StructureDefinition/extension-adjudication-outcome",
                                "valueCodeableConcept": {
                                    "coding": [
                                        {
                                            "system": "http://nphies.sa/terminology/CodeSystem/adjudication-outcome",
                                            "code": "approved"
                                        }
                                    ]
                                }
                            }
                        ],
                        "itemSequence": 1,
                        "adjudication": [
                            {
                                "category": {
                                    "coding": [
                                        {
                                            "system": "http://terminology.hl7.org/CodeSystem/adjudication",
                                            "code": "eligible"
                                        }
                                    ]
                                },
                                "amount": {
                                    "value": 100,
                                    "currency": "SAR"
                                }
                            },
                            {
                                "category": {
                                    "coding": [
                                        {
                                            "system": "http://terminology.hl7.org/CodeSystem/adjudication",
                                            "code": "copay"
                                        }
                                    ]
                                },
                                "amount": {
                                    "value": 0,
                                    "currency": "SAR"
                                }
                            },
                            {
                                "category": {
                                    "coding": [
                                        {
                                            "system": "http://terminology.hl7.org/CodeSystem/adjudication",
                                            "code": "benefit"
                                        }
                                    ]
                                },
                                "amount": {
                                    "value": 100,
                                    "currency": "SAR"
                                }
                            },
                            {
                                "category": {
                                    "coding": [
                                        {
                                            "system": "http://nphies.sa/terminology/CodeSystem/ksa-adjudication",
                                            "code": "approved-quantity"
                                        }
                                    ]
                                },
                                "value": 1
                            }
                        ]
                    },
                    {
                        "extension": [
                            {
                                "url": "http://nphies.sa/fhir/ksa/nphies-fs/StructureDefinition/extension-adjudication-outcome",
                                "valueCodeableConcept": {
                                    "coding": [
                                        {
                                            "system": "http://nphies.sa/terminology/CodeSystem/adjudication-outcome",
                                            "code": "approved"
                                        }
                                    ]
                                }
                            }
                        ],
                        "itemSequence": 2,
                        "adjudication": [
                            {
                                "category": {
                                    "coding": [
                                        {
                                            "system": "http://terminology.hl7.org/CodeSystem/adjudication",
                                            "code": "eligible"
                                        }
                                    ]
                                },
                                "amount": {
                                    "value": 100,
                                    "currency": "SAR"
                                }
                            },
                            {
                                "category": {
                                    "coding": [
                                        {
                                            "system": "http://terminology.hl7.org/CodeSystem/adjudication",
                                            "code": "copay"
                                        }
                                    ]
                                },
                                "amount": {
                                    "value": 0,
                                    "currency": "SAR"
                                }
                            },
                            {
                                "category": {
                                    "coding": [
                                        {
                                            "system": "http://terminology.hl7.org/CodeSystem/adjudication",
                                            "code": "benefit"
                                        }
                                    ]
                                },
                                "amount": {
                                    "value": 100,
                                    "currency": "SAR"
                                }
                            },
                            {
                                "category": {
                                    "coding": [
                                        {
                                            "system": "http://nphies.sa/terminology/CodeSystem/ksa-adjudication",
                                            "code": "approved-quantity"
                                        }
                                    ]
                                },
                                "value": 1
                            }
                        ]
                    }
                ],
                "total": [
                    {
                        "category": {
                            "coding": [
                                {
                                    "system": "http://terminology.hl7.org/CodeSystem/adjudication",
                                    "code": "eligible"
                                }
                            ]
                        },
                        "amount": {
                            "value": 200,
                            "currency": "SAR"
                        }
                    },
                    {
                        "category": {
                            "coding": [
                                {
                                    "system": "http://terminology.hl7.org/CodeSystem/adjudication",
                                    "code": "benefit"
                                }
                            ]
                        },
                        "amount": {
                            "value": 200,
                            "currency": "SAR"
                        }
                    },
                    {
                        "category": {
                            "coding": [
                                {
                                    "system": "http://terminology.hl7.org/CodeSystem/adjudication",
                                    "code": "copay"
                                }
                            ]
                        },
                        "amount": {
                            "value": 0,
                            "currency": "SAR"
                        }
                    }
                ],
                "insurance": [
                    {
                        "sequence": 1,
                        "focal": true,
                        "coverage": {
                            "reference": "http://provider.com/Coverage/1333"
                        }
                    }
                ]
            }
        },
        {
			"fullUrl": "http://provider.com/Patient/173826788",
			"resource": {
				"resourceType": "Patient",
				"id": "173826788",
				"meta": {
					"profile": [
						"http://nphies.sa/fhir/ksa/nphies-fs/StructureDefinition/patient|1.0.0"
					]
				},
				"extension": [
					{
						"url": "http://nphies.sa/fhir/ksa/nphies-fs/StructureDefinition/extension-occupation",
						"valueCodeableConcept": {
							"coding": [
								{
									"system": "http://nphies.sa/terminology/CodeSystem/occupation",
									"code": "unemployed"
								}
							]
						}
					}
				],
				"identifier": [
					{
						"type": {
							"coding": [
								{
									"system": "http://terminology.hl7.org/CodeSystem/v2-0203",
									"code": "MR",
									"display": "Medical Record Number"
								}
							]
						},
						"system": "http://provider.com/MRN",
						"value": "IPN-900000002"
					}
				],
				"active": true,
				"name": [
					{
						"use": "official",
						"text": "baby julia Abbas",
						"family": "Abbas",
						"given": [
							"baby",
							"julia"
						]
					}
				],
				"gender": "male",
				"_gender": {
					"extension": [
						{
							"url": "http://nphies.sa/fhir/ksa/nphies-fs/StructureDefinition/extension-ksa-administrative-gender",
							"valueCodeableConcept": {
								"coding": [
									{
										"system": "http://nphies.sa/terminology/CodeSystem/ksa-administrative-gender",
										"code": "male",
										"display": "Male"
									}
								]
							}
						}
					]
				},
				"birthDate": "2023-11-11",
				"maritalStatus": {
					"coding": [
						{
							"system": "http://terminology.hl7.org/CodeSystem/v3-MaritalStatus",
							"code": "U"
						}
					]
				}
			}
		},
        {
			"fullUrl": "http://provider.com/Patient/3662364643",
			"resource": {
				"resourceType": "Patient",
				"id": "3662364643",
				"meta": {
					"profile": [
						"http://nphies.sa/fhir/ksa/nphies-fs/StructureDefinition/patient|1.0.0"
					]
				},
				"extension": [
					{
						"url": "http://nphies.sa/fhir/ksa/nphies-fs/StructureDefinition/extension-occupation",
						"valueCodeableConcept": {
							"coding": [
								{
									"system": "http://nphies.sa/terminology/CodeSystem/occupation",
									"code": "business"
								}
							]
						}
					}
				],
				"identifier": [
					{
						"type": {
							"coding": [
								{
									"system": "http://terminology.hl7.org/CodeSystem/v2-0203",
									"code": "PRC",
									"display": "Permanent Resident Card Number"
								}
							]
						},
						"system": "http://nphies.sa/identifier/iqama",
						"value": "2000000001"
					}
				],
				"active": true,
				"name": [
					{
						"use": "official",
						"text": "julia ahmad Abbas",
						"family": "Abbas",
						"given": [
							"julia",
							"ahmad"
						]
					}
				],
				"telecom": [
					{
						"system": "phone",
						"value": "+966517382642"
					}
				],
				"gender": "female",
				"_gender": {
					"extension": [
						{
							"url": "http://nphies.sa/fhir/ksa/nphies-fs/StructureDefinition/extension-ksa-administrative-gender",
							"valueCodeableConcept": {
								"coding": [
									{
										"system": "http://nphies.sa/terminology/CodeSystem/ksa-administrative-gender",
										"code": "female",
										"display": "Female"
									}
								]
							}
						}
					]
				},
				"birthDate": "1990-12-25",
				"maritalStatus": {
					"coding": [
						{
							"system": "http://terminology.hl7.org/CodeSystem/v3-MaritalStatus",
							"code": "M"
						}
					]
				}
			}
		},
        {
            "fullUrl": "http://provider.com/Organization/b1b3432921324f97af3be9fd0b1a14ae",
            "resource": {
                "resourceType": "Organization",
                "id": "b1b3432921324f97af3be9fd0b1a14ae",
                "meta": {
                    "profile": [
                        "http://nphies.sa/fhir/ksa/nphies-fs/StructureDefinition/provider-organization|1.0.0"
                    ]
                },
                "extension": [
                    {
                        "url": "http://nphies.sa/fhir/ksa/nphies-fs/StructureDefinition/extension-provider-type",
                        "valueCodeableConcept": {
                            "coding": [
                                {
                                    "system": "http://nphies.sa/terminology/CodeSystem/provider-type",
                                    "code": "1",
									"display": "Hospital"
                                }
                            ]
                        }
                    }
                ],
                "identifier": [
                    {
                        "system": "http://nphies.sa/license/provider-license",
                        "value": "PR-FHIR"
                    }
                ],
                "active": true,
                "type": [
                    {
                        "coding": [
                            {
                                "system": "http://nphies.sa/terminology/CodeSystem/organization-type",
                                "code": "prov"
                            }
                        ]
                    }
                ]
            }
        },
        {
            "fullUrl": "http://provider.com/Organization/bff3aa1fbd3648619ac082357bf135db",
            "resource": {
                "resourceType": "Organization",
                "id": "bff3aa1fbd3648619ac082357bf135db",
                "meta": {
                    "profile": [
                        "http://nphies.sa/fhir/ksa/nphies-fs/StructureDefinition/insurer-organization|1.0.0"
                    ]
                },
                "identifier": [
                    {
                        "system": "http://nphies.sa/license/payer-license",
                        "value": "INS-FHIR"
                    }
                ],
                "active": true,
                "type": [
                    {
                        "coding": [
                            {
                                "system": "http://nphies.sa/terminology/CodeSystem/organization-type",
                                "code": "ins"
                            }
                        ]
                    }
                ],
                "name": "Test Payer"
            }
        },
        {
            "fullUrl": "http://provider.com/Organization/13",
            "resource": {
                "resourceType": "Organization",
                "id": "13",
                "meta": {
                    "profile": [
                        "http://nphies.sa/fhir/ksa/nphies-fs/StructureDefinition/policyholder-organization|1.0.0"
                    ]
                },
                "identifier": [
                    {
                        "system": "http://nphies.sa/identifier/organization",
                        "value": "5009"
                    }
                ],
                "active": true,
                "name": "Policy Holder Organization"
            }
        },
        {
            "fullUrl": "http://provider.com/Coverage/1333",
            "resource": {
                "resourceType": "Coverage",
                "id": "1333",
                "meta": {
                    "profile": [
                        "http://nphies.sa/fhir/ksa/nphies-fs/StructureDefinition/coverage|1.0.0"
                    ]
                },
                "identifier": [
                    {
                        "system": "http://pseudo.com.sa/memberid",
                        "value": "0000000002"
                    }
                ],
                "status": "active",
                "type": {
                    "coding": [
                        {
                            "system": "http://nphies.sa/terminology/CodeSystem/coverage-type",
                            "code": "EHCPOL",
                            "display": "extended healthcare"
                        }
                    ]
                },
                "policyHolder": {
                    "reference": "http://provider.com/Organization/13"
                },
                "subscriber": {
                    "reference": "http://provider.com/Patient/3662364643"
                },
                "beneficiary": {
                    "reference": "http://provider.com/Patient/173826788"
                },
                "relationship": {
                    "coding": [
                        {
                            "system": "http://terminology.hl7.org/CodeSystem/subscriber-relationship",
                            "code": "child",
                            "display": "Child"
                        }
                    ]
                },
                "payor": [
                    {
                        "reference": "http://provider.com/Organization/bff3aa1fbd3648619ac082357bf135db"
                    }
                ],
                "class": [
                    {
                        "type": {
                            "coding": [
                                {
                                    "system": "http://terminology.hl7.org/CodeSystem/coverage-class",
                                    "code": "plan"
                                }
                            ]
                        },
                        "value": "CB135",
                        "name": "Insurance Plan A"
                    }
                ],
                "network": "Golden C"
            }
        }
    ]
}