{
	"resourceType": "Bundle",
	"id": "9e4dbafa-1263-407d-ba38-f8879b0b30cc",
	"meta": {
		"profile": [
			"http://nphies.sa/fhir/ksa/nphies-fs/StructureDefinition/bundle|1.0.0"
		]
	},
	"type": "message",
	"timestamp": "2023-12-03T09:20:15.23+03:00",
	"entry": [
		{
			"fullUrl": "urn:uuid:a7e4caf2-0441-40e5-97d2-5ae1802730cc",
			"resource": {
				"resourceType": "MessageHeader",
				"id": "a7e4caf2-0441-40e5-97d2-5ae1802730cc",
				"meta": {
					"profile": [
						"http://nphies.sa/fhir/ksa/nphies-fs/StructureDefinition/message-header|1.0.0"
					]
				},
				"eventCoding": {
					"system": "http://nphies.sa/terminology/CodeSystem/ksa-message-events",
					"code": "priorauth-request"
				},
				"destination": [
					{
						"endpoint": "http://nphies.sa/license/payer-license/INS-FHIR",
						"receiver": {
							"type": "Organization",
							"identifier": {
								"system": "http://nphies.sa/license/payer-license",
								"value": "INS-FHIR"
							}
						}
					}
				],
				"sender": {
					"type": "Organization",
					"identifier": {
						"system": "http://nphies.sa/license/provider-license",
						"value": "PR-FHIR"
					}
				},
				"source": {
					"endpoint": "http://provider.com"
				},
				"focus": [
					{
						"reference": "http://provider.com/Claim/483074"
					}
				]
			}
		},
		{
			"fullUrl": "http://provider.com/Claim/483074",
			"resource": {
				"resourceType": "Claim",
				"id": "483074",
				"meta": {
					"profile": [
						"http://nphies.sa/fhir/ksa/nphies-fs/StructureDefinition/pharmacy-priorauth|1.0.0"
					]
				},
				"identifier": [
					{
						"system": "http://provider.com/authorization",
						"value": "req_011253074"
					}
				],
				"status": "active",
				"type": {
					"coding": [
						{
							"system": "http://terminology.hl7.org/CodeSystem/claim-type",
							"code": "pharmacy"
						}
					]
				},
				"subType": {
					"coding": [
						{
							"system": "http://nphies.sa/terminology/CodeSystem/claim-subtype",
							"code": "op"
						}
					]
				},
				"use": "preauthorization",
				"patient": {
					"reference": "http://provider.com/Patient/123456777"
				},
				"created": "2023-12-03T09:20:15.23+03:00",
				"insurer": {
					"reference": "http://provider.com/Organization/bff3aa1fbd3648619ac082357bf135db"
				},
				"provider": {
					"reference": "http://provider.com/Organization/b1b3432921324f97af3be9fd0b1a34fa"
				},
				"priority": {
					"coding": [
						{
							"system": "http://terminology.hl7.org/CodeSystem/processpriority",
							"code": "normal"
						}
					]
				},
				"payee": {
					"type": {
						"coding": [
							{
								"system": "http://terminology.hl7.org/CodeSystem/payeetype",
								"code": "provider"
							}
						]
					}
				},
				"diagnosis": [
					{
						"sequence": 1,
						"diagnosisCodeableConcept": {
							"coding": [
								{
									"system": "http://hl7.org/fhir/sid/icd-10-am",
									"code": "R51",
									"display": "Headache"
								}
							]
						},
						"type": [
							{
								"coding": [
									{
										"system": "http://nphies.sa/terminology/CodeSystem/diagnosis-type",
										"code": "principal"
									}
								]
							}
						]
					},
					{
						"sequence": 2,
						"diagnosisCodeableConcept": {
							"coding": [
								{
									"system": "http://hl7.org/fhir/sid/icd-10-am",
									"code": "G44.4"
								}
							]
						},
						"type": [
							{
								"coding": [
									{
										"system": "http://nphies.sa/terminology/CodeSystem/diagnosis-type",
										"code": "secondary"
									}
								]
							}
						]
					}
				],
				"insurance": [
					{
						"sequence": 1,
						"focal": true,
						"coverage": {
							"reference": "http://provider.com/Coverage/41"
						}
					}
				],
				"supportingInfo": [
					{
						"sequence": 1,
						"category": {
							"coding": [
								{
									"system": "http://nphies.sa/terminology/CodeSystem/claim-information-category",
									"code": "days-supply"
								}
							]
						},
						"valueQuantity": {
							"value": 7,
							"system": "http://unitsofmeasure.org",
							"code": "d"
						}
					},
					{
						"sequence": 10,
						"category": {
							"coding": [
								{
									"system": "http://nphies.sa/terminology/CodeSystem/claim-information-category",
									"code": "investigation-result"
								}
							]
						},
						"code": {
							"coding": [
								{
									"system": "http://nphies.sa/terminology/CodeSystem/investigation-result",
									"code": "NA"
								}
							]
						}
					},
					{
						"sequence": 12,
						"category": {
							"coding": [
								{
									"system": "http://nphies.sa/terminology/CodeSystem/claim-information-category",
									"code": "treatment-plan"
								}
							]
						},
						"valueString": "Analgesic Drugs"
					},
					{
						"sequence": 13,
						"category": {
							"coding": [
								{
									"system": "http://nphies.sa/terminology/CodeSystem/claim-information-category",
									"code": "patient-history"
								}
							]
						},
						"valueString": "No systemic disease"
					},
					{
						"sequence": 14,
						"category": {
							"coding": [
								{
									"system": "http://nphies.sa/terminology/CodeSystem/claim-information-category",
									"code": "physical-examination"
								}
							]
						},
						"valueString": "Stable"
					},
					{
						"sequence": 15,
						"category": {
							"coding": [
								{
									"system": "http://nphies.sa/terminology/CodeSystem/claim-information-category",
									"code": "history-of-present-illness"
								}
							]
						},
						"valueString": "No history"
					}
				],
				"item": [
					{
						"sequence": 1,
						"diagnosisSequence": [
							1
						],
						"informationSequence": [
							1
						],
						"extension": [
							{
								"url": "http://nphies.sa/fhir/ksa/nphies-fs/StructureDefinition/extension-maternity",
								"valueBoolean": false
							},
							{
								"url": "http://nphies.sa/fhir/ksa/nphies-fs/StructureDefinition/extension-package",
								"valueBoolean": false
							},
							{
								"url": "http://nphies.sa/fhir/ksa/nphies-fs/StructureDefinition/extension-pharmacist-Selection-Reason",
								"valueCodeableConcept": {
									"coding": [
										{
											"system": "http://nphies.sa/terminology/CodeSystem/pharmacist-selection-reason",
											"code": "patient-request"
										}
									]
								}
							},
							{
								"url": "http://nphies.sa/fhir/ksa/nphies-fs/StructureDefinition/extension-prescribed-Medication",
								"valueCodeableConcept": {
									"coding": [
										{
											"system": "http://nphies.sa/terminology/CodeSystem/medication-codes",
											"code": "06285096001627"
										}
									]
								}
							},
							{
								"url": "http://nphies.sa/fhir/ksa/nphies-fs/StructureDefinition/extension-patient-share",
								"valueMoney": {
									"value": 0,
									"currency": "SAR"
								}
							}
						],
						"productOrService": {
							"coding": [
								{
									"system": "http://nphies.sa/terminology/CodeSystem/medication-codes",
									"code": "07612797198780",
									"display": "VOLTAREN 50 MG TAB"
								}
							]
						},
						"servicedDate": "2023-12-03",
						"quantity": {
							"value": 1
						},
						"unitPrice": {
							"value": 60,
							"currency": "SAR"
						},
						"net": {
							"value": 60,
							"currency": "SAR"
						}
					}
				],
				"total": {
					"value": 60,
					"currency": "SAR"
				}
			}
		},
		{
			"fullUrl": "http://provider.com/Organization/b1b3432921324f97af3be9fd0b1a34fa",
			"resource": {
				"resourceType": "Organization",
				"id": "b1b3432921324f97af3be9fd0b1a34fa",
				"meta": {
					"profile": [
						"http://nphies.sa/fhir/ksa/nphies-fs/StructureDefinition/provider-organization|1.0.0"
					]
				},
				"extension": [
					{
						"url": "http://nphies.sa/fhir/ksa/nphies-fs/StructureDefinition/extension-provider-type",
						"valueCodeableConcept": {
							"coding": [
								{
									"system": "http://nphies.sa/terminology/CodeSystem/provider-type",
									"code": "6",
									"display": "Pharmacy"
								}
							]
						}
					}
				],
				"identifier": [
					{
						"system": "http://nphies.sa/license/provider-license",
						"value": "PR-FHIR"
					}
				],
				"active": true,
				"type": [
					{
						"coding": [
							{
								"system": "http://nphies.sa/terminology/CodeSystem/organization-type",
								"code": "prov"
							}
						]
					}
				],
				"name": "Test Provider"
			}
		},
		{
			"fullUrl": "http://provider.com/Patient/123456777",
			"resource": {
				"resourceType": "Patient",
				"id": "123456777",
				"meta": {
					"profile": [
						"http://nphies.sa/fhir/ksa/nphies-fs/StructureDefinition/patient|1.0.0"
					]
				},
				"extension": [
					{
						"url": "http://nphies.sa/fhir/ksa/nphies-fs/StructureDefinition/extension-occupation",
						"valueCodeableConcept": {
							"coding": [
								{
									"system": "http://nphies.sa/terminology/CodeSystem/occupation",
									"code": "business"
								}
							]
						}
					}
				],
				"identifier": [
					{
						"type": {
							"coding": [
								{
									"system": "http://nphies.sa/terminology/CodeSystem/patient-identifier-type",
									"code": "BN"
								}
							]
						},
						"system": "http://nphies.sa/identifier/bordernumber",
						"value": "3000000000"
					}
				],
				"active": true,
				"name": [
					{
						"use": "official",
						"text": "Zahi Fathi abdullah Tareeq",
						"family": "Tareeq",
						"given": [
							"Zahi",
							"Fathi",
							"abdullah"
						]
					}
				],
				"telecom": [
					{
						"system": "phone",
						"value": "+966512345691"
					}
				],
				"gender": "male",
				"_gender": {
					"extension": [
						{
							"url": "http://nphies.sa/fhir/ksa/nphies-fs/StructureDefinition/extension-ksa-administrative-gender",
							"valueCodeableConcept": {
								"coding": [
									{
										"system": "http://nphies.sa/terminology/CodeSystem/ksa-administrative-gender",
										"code": "male",
										"display": "Male"
									}
								]
							}
						}
					]
				},
				"birthDate": "1988-10-13",
				"maritalStatus": {
					"coding": [
						{
							"system": "http://terminology.hl7.org/CodeSystem/v3-MaritalStatus",
							"code": "M"
						}
					]
				}
			}
		},
		{
			"fullUrl": "http://provider.com/Organization/bff3aa1fbd3648619ac082357bf135db",
			"resource": {
				"resourceType": "Organization",
				"id": "bff3aa1fbd3648619ac082357bf135db",
				"meta": {
					"profile": [
						"http://nphies.sa/fhir/ksa/nphies-fs/StructureDefinition/insurer-organization|1.0.0"
					]
				},
				"identifier": [
					{
						"system": "http://nphies.sa/license/payer-license",
						"value": "INS-FHIR"
					}
				],
				"active": true,
				"type": [
					{
						"coding": [
							{
								"system": "http://nphies.sa/terminology/CodeSystem/organization-type",
								"code": "ins"
							}
						]
					}
				],
				"name": "Test Payer"
			}
		},
		{
			"fullUrl": "http://provider.com/Coverage/41",
			"resource": {
				"resourceType": "Coverage",
				"id": "41",
				"meta": {
					"profile": [
						"http://nphies.sa/fhir/ksa/nphies-fs/StructureDefinition/coverage|1.0.0"
					]
				},
				"identifier": [
					{
						"system": "http://pseudo-payer.com.sa/memberid",
						"value": "10100000"
					}
				],
				"status": "active",
				"type": {
					"coding": [
						{
							"system": "http://nphies.sa/terminology/CodeSystem/coverage-type",
							"code": "EHCPOL",
							"display": "extended healthcare"
						}
					]
				},
				"policyHolder": {
					"reference": "http://provider.com/Organization/13"
				},
				"subscriber": {
					"reference": "http://provider.com/Patient/123456777"
				},
				"beneficiary": {
					"reference": "http://provider.com/Patient/123456777"
				},
				"relationship": {
					"coding": [
						{
							"system": "http://terminology.hl7.org/CodeSystem/subscriber-relationship",
							"code": "self",
							"display": "Self"
						}
					]
				},
				"period": {
					"start": "2023-12-05",
					"end": "2024-12-05"
				},
				"payor": [
					{
						"reference": "http://provider.com/Organization/bff3aa1fbd3648619ac082357bf135db"
					}
				],
				"class": [
					{
						"type": {
							"coding": [
								{
									"system": "http://terminology.hl7.org/CodeSystem/coverage-class",
									"code": "plan"
								}
							]
						},
						"value": "ABC1234",
						"name": "Elal Constructions"
					}
				],
				"network": "7"
			}
		},
		{
			"fullUrl": "http://provider.com/Organization/13",
			"resource": {
				"resourceType": "Organization",
				"id": "13",
				"meta": {
					"profile": [
						"http://nphies.sa/fhir/ksa/nphies-fs/StructureDefinition/policyholder-organization|1.0.0"
					]
				},
				"identifier": [
					{
						"system": "http://nphies.sa/identifier/organization",
						"value": "5009"
					}
				],
				"active": true,
				"name": "Policy Holder Organization"
			}
		}
	]
}