{
    "resourceType": "Bundle",
    "id": "566301b5-b3e2-4e9b-8691-4c73e1a684d0",
    "meta": {
        "profile": [
            "http://nphies.sa/fhir/ksa/nphies-fs/StructureDefinition/bundle|1.0.0"
        ]
    },
    "type": "message",
    "timestamp": "2023-12-03T11:54:40.157+00:00",
    "entry": [
        {
            "fullUrl": "http://pseudo-payer.com.sa/MessageHeader/f549fa9d-8941-43bc-8fb9-62e27eead814",
            "resource": {
                "resourceType": "MessageHeader",
                "id": "f549fa9d-8941-43bc-8fb9-62e27eead814",
                "meta": {
                    "profile": [
                        "http://nphies.sa/fhir/ksa/nphies-fs/StructureDefinition/message-header|1.0.0"
                    ]
                },
                "eventCoding": {
                    "system": "http://nphies.sa/terminology/CodeSystem/ksa-message-events",
                    "code": "priorauth-response"
                },
                "destination": [
                    {
                        "endpoint": "http://provider.com",
                        "receiver": {
                            "type": "Organization",
                            "identifier": {
                                "system": "http://nphies.sa/license/provider-license",
                                "value": "PR-FHIR"
                            }
                        }
                    }
                ],
                "sender": {
                    "type": "Organization",
                    "identifier": {
                        "system": "http://nphies.sa/license/payer-license",
                        "value": "INS-FHIR"
                    }
                },
                "source": {
                    "endpoint": "http://pseudo-payer.com"
                },
                "response": {
                    "identifier": "a7e4caf2-0441-40e5-97d2-5ae1802730cc",
                    "code": "ok"
                },
                "focus": [
                    {
                        "reference": "http://pseudo-payer.com.sa/ClaimResponse/483074"
                    }
                ]
            }
        },
        {
            "fullUrl": "http://pseudo-payer.com.sa/ClaimResponse/483074",
            "resource": {
                "resourceType": "ClaimResponse",
                "id": "483074",
                "meta": {
                    "profile": [
                        "http://nphies.sa/fhir/ksa/nphies-fs/StructureDefinition/prior-auth-response|1.0.0"
                    ]
                },
                "extension": [
                    {
                        "url": "http://nphies.sa/fhir/ksa/nphies-fs/StructureDefinition/extension-adjudication-outcome",
                        "valueCodeableConcept": {
                            "coding": [
                                {
                                    "system": "http://nphies.sa/terminology/CodeSystem/adjudication-outcome",
                                    "code": "approved"
                                }
                            ]
                        }
                    }
                ],
                "identifier": [
                    {
                        "system": "http://pseudo-payer.com.sa/claimresponse",
                        "value": "res_560657"
                    }
                ],
                "status": "active",
                "type": {
                    "coding": [
                        {
                            "system": "http://terminology.hl7.org/CodeSystem/claim-type",
                            "code": "pharmacy"
                        }
                    ]
                },
                "subType": {
                    "coding": [
                        {
                            "system": "http://nphies.sa/terminology/CodeSystem/claim-subtype",
                            "code": "op"
                        }
                    ]
                },
                "use": "preauthorization",
                "patient": {
                    "reference": "http://provider.com/Patient/123456777"
                },
                "created": "2023-12-03",
                "insurer": {
                    "reference": "http://provider.com/Organization/bff3aa1fbd3648619ac082357bf135db"
                },
                "requestor": {
                    "reference": "http://provider.com/Organization/b1b3432921324f97af3be9fd0b1a34fa"
                },
                "request": {
                    "type": "Claim",
                    "identifier": {
                        "system": "http://provider.com/authorization",
                        "value": "req_011253074"
                    }
                },
                "outcome": "complete",
                "preAuthRef": "Auth05202404",
                "preAuthPeriod": {
                    "start": "2023-12-03",
                    "end": "2023-12-13"
                },
                "item": [
                    {
                        "extension": [
                            {
                                "url": "http://nphies.sa/fhir/ksa/nphies-fs/StructureDefinition/extension-adjudication-outcome",
                                "valueCodeableConcept": {
                                    "coding": [
                                        {
                                            "system": "http://nphies.sa/terminology/CodeSystem/adjudication-outcome",
                                            "code": "approved"
                                        }
                                    ]
                                }
                            }
                        ],
                        "itemSequence": 1,
                        "adjudication": [
                            {
                                "category": {
                                    "coding": [
                                        {
                                            "system": "http://terminology.hl7.org/CodeSystem/adjudication",
                                            "code": "submitted"
                                        }
                                    ]
                                },
                                "amount": {
                                    "value": 60,
                                    "currency": "SAR"
                                }
                            },
                            {
                                "category": {
                                    "coding": [
                                        {
                                            "system": "http://terminology.hl7.org/CodeSystem/adjudication",
                                            "code": "eligible"
                                        }
                                    ]
                                },
                                "amount": {
                                    "value": 60,
                                    "currency": "SAR"
                                }
                            },
                            {
                                "category": {
                                    "coding": [
                                        {
                                            "system": "http://terminology.hl7.org/CodeSystem/adjudication",
                                            "code": "copay"
                                        }
                                    ]
                                },
                                "amount": {
                                    "value": 0,
                                    "currency": "SAR"
                                }
                            },
                            {
                                "category": {
                                    "coding": [
                                        {
                                            "system": "http://terminology.hl7.org/CodeSystem/adjudication",
                                            "code": "benefit"
                                        }
                                    ]
                                },
                                "amount": {
                                    "value": 60,
                                    "currency": "SAR"
                                }
                            },
                            {
                                "category": {
                                    "coding": [
                                        {
                                            "system": "http://nphies.sa/terminology/CodeSystem/ksa-adjudication",
                                            "code": "approved-quantity"
                                        }
                                    ]
                                },
                                "value": 1
                            }
                        ]
                    }
                ],
                "total": [
                    {
                        "category": {
                            "coding": [
                                {
                                    "system": "http://terminology.hl7.org/CodeSystem/adjudication",
                                    "code": "submitted"
                                }
                            ]
                        },
                        "amount": {
                            "value": 60,
                            "currency": "SAR"
                        }
                    },
                    {
                        "category": {
                            "coding": [
                                {
                                    "system": "http://terminology.hl7.org/CodeSystem/adjudication",
                                    "code": "eligible"
                                }
                            ]
                        },
                        "amount": {
                            "value": 60,
                            "currency": "SAR"
                        }
                    },
                    {
                        "category": {
                            "coding": [
                                {
                                    "system": "http://terminology.hl7.org/CodeSystem/adjudication",
                                    "code": "benefit"
                                }
                            ]
                        },
                        "amount": {
                            "value": 60,
                            "currency": "SAR"
                        }
                    },
                    {
                        "category": {
                            "coding": [
                                {
                                    "system": "http://terminology.hl7.org/CodeSystem/adjudication",
                                    "code": "copay"
                                }
                            ]
                        },
                        "amount": {
                            "value": 0,
                            "currency": "SAR"
                        }
                    }
                ],
                "insurance": [
                    {
                        "sequence": 1,
                        "focal": true,
                        "coverage": {
                            "reference": "http://provider.com/Coverage/41"
                        }
                    }
                ]
            }
        },
        {
            "fullUrl": "http://provider.com/Patient/123456777",
            "resource": {
                "resourceType": "Patient",
                "id": "123456777",
                "meta": {
                    "profile": [
                        "http://nphies.sa/fhir/ksa/nphies-fs/StructureDefinition/patient|1.0.0"
                    ]
                },
                "extension": [
                    {
                        "url": "http://nphies.sa/fhir/ksa/nphies-fs/StructureDefinition/extension-occupation",
                        "valueCodeableConcept": {
                            "coding": [
                                {
                                    "system": "http://nphies.sa/terminology/CodeSystem/occupation",
                                    "code": "business"
                                }
                            ]
                        }
                    }
                ],
                "identifier": [
                    {
                        "type": {
                            "coding": [
                                {
                                    "system": "http://nphies.sa/terminology/CodeSystem/patient-identifier-type",
                                    "code": "BN"
                                }
                            ]
                        },
                        "system": "http://nphies.sa/identifier/bordernumber",
                        "value": "3000000000"
                    }
                ],
                "active": true,
                "name": [
                    {
                        "use": "official",
                        "text": "Zahi Fathi abdullah Tareeq",
                        "family": "Tareeq",
                        "given": [
                            "Zahi",
                            "Fathi",
                            "abdullah"
                        ]
                    }
                ],
                "telecom": [
                    {
                        "system": "phone",
                        "value": "+966512345691"
                    }
                ],
                "gender": "male",
                "_gender": {
                    "extension": [
                        {
                            "url": "http://nphies.sa/fhir/ksa/nphies-fs/StructureDefinition/extension-ksa-administrative-gender",
                            "valueCodeableConcept": {
                                "coding": [
                                    {
                                        "system": "http://nphies.sa/terminology/CodeSystem/ksa-administrative-gender",
                                        "code": "male",
                                        "display": "Male"
                                    }
                                ]
                            }
                        }
                    ]
                },
                "birthDate": "1988-10-13",
                "maritalStatus": {
                    "coding": [
                        {
                            "system": "http://terminology.hl7.org/CodeSystem/v3-MaritalStatus",
                            "code": "M"
                        }
                    ]
                }
            }
        },
        {
            "fullUrl": "http://provider.com/Organization/b1b3432921324f97af3be9fd0b1a34fa",
            "resource": {
                "resourceType": "Organization",
                "id": "b1b3432921324f97af3be9fd0b1a34fa",
                "meta": {
                    "profile": [
                        "http://nphies.sa/fhir/ksa/nphies-fs/StructureDefinition/provider-organization|1.0.0"
                    ]
                },
                "extension": [
                    {
                        "url": "http://nphies.sa/fhir/ksa/nphies-fs/StructureDefinition/extension-provider-type",
                        "valueCodeableConcept": {
                            "coding": [
                                {
                                    "system": "http://nphies.sa/terminology/CodeSystem/provider-type",
                                    "code": "6",
                                    "display": "Pharmacy"
                                }
                            ]
                        }
                    }
                ],
                "identifier": [
                    {
                        "system": "http://nphies.sa/license/provider-license",
                        "value": "PR-FHIR"
                    }
                ],
                "active": true,
                "type": [
                    {
                        "coding": [
                            {
                                "system": "http://nphies.sa/terminology/CodeSystem/organization-type",
                                "code": "prov"
                            }
                        ]
                    }
                ],
                "name": "Test Provider"
            }
        },
        {
            "fullUrl": "http://provider.com/Organization/bff3aa1fbd3648619ac082357bf135db",
            "resource": {
                "resourceType": "Organization",
                "id": "bff3aa1fbd3648619ac082357bf135db",
                "meta": {
                    "profile": [
                        "http://nphies.sa/fhir/ksa/nphies-fs/StructureDefinition/insurer-organization|1.0.0"
                    ]
                },
                "identifier": [
                    {
                        "system": "http://nphies.sa/license/payer-license",
                        "value": "INS-FHIR"
                    }
                ],
                "active": true,
                "type": [
                    {
                        "coding": [
                            {
                                "system": "http://nphies.sa/terminology/CodeSystem/organization-type",
                                "code": "ins"
                            }
                        ]
                    }
                ],
                "name": "Test Payer"
            }
        },
        {
            "fullUrl": "http://provider.com/Organization/13",
            "resource": {
                "resourceType": "Organization",
                "id": "13",
                "meta": {
                    "profile": [
                        "http://nphies.sa/fhir/ksa/nphies-fs/StructureDefinition/policyholder-organization|1.0.0"
                    ]
                },
                "identifier": [
                    {
                        "system": "http://nphies.sa/identifier/organization",
                        "value": "5009"
                    }
                ],
                "active": true,
                "name": "Policy Holder Organization"
            }
        },
        {
            "fullUrl": "http://provider.com/Coverage/41",
            "resource": {
                "resourceType": "Coverage",
                "id": "41",
                "meta": {
                    "profile": [
                        "http://nphies.sa/fhir/ksa/nphies-fs/StructureDefinition/coverage|1.0.0"
                    ]
                },
                "identifier": [
                    {
						"system": "http://pseudo-payer.com.sa/memberid",
                        "value": "10100000"
                    }
                ],
                "status": "active",
                "type": {
                    "coding": [
                        {
                            "system": "http://nphies.sa/terminology/CodeSystem/coverage-type",
                            "code": "EHCPOL",
                            "display": "extended healthcare"
                        }
                    ]
                },
                "policyHolder": {
                    "reference": "http://provider.com/Organization/13"
                },
                "subscriber": {
                    "reference": "http://provider.com/Patient/123456777"
                },
                "beneficiary": {
                    "reference": "http://provider.com/Patient/123456777"
                },
                "relationship": {
                    "coding": [
                        {
                            "system": "http://terminology.hl7.org/CodeSystem/subscriber-relationship",
                            "code": "self",
                            "display": "Self"
                        }
                    ]
                },
                "period": {
                    "start": "2023-12-05",
                    "end": "2024-12-05"
                },
                "payor": [
                    {
                        "reference": "http://provider.com/Organization/bff3aa1fbd3648619ac082357bf135db"
                    }
                ],
                "class": [
                    {
                        "type": {
                            "coding": [
                                {
                                    "system": "http://terminology.hl7.org/CodeSystem/coverage-class",
                                    "code": "plan"
                                }
                            ]
                        },
                        "value": "ABC1234",
                        "name": "Elal Constructions"
                    }
                ],
                "network": "7"
            }
        }
    ]
}