{
    "resourceType": "Bundle",
    "id": "b0db30b1-09d7-4c4b-aac7-b09607041167",
    "meta": {
        "profile": [
            "http://nphies.sa/fhir/ksa/nphies-fs/StructureDefinition/bundle|1.0.0"
        ]
    },
    "type": "message",
    "timestamp": "2023-12-05T12:05:28.495+00:00",
    "entry": [
        {
            "fullUrl": "http://pseudo-payer.com.sa/MessageHeader/c4071e65-3d07-4961-8b6d-cead084ba12b",
            "resource": {
                "resourceType": "MessageHeader",
                "id": "c4071e65-3d07-4961-8b6d-cead084ba12b",
                "meta": {
                    "profile": [
                        "http://nphies.sa/fhir/ksa/nphies-fs/StructureDefinition/message-header|1.0.0"
                    ]
                },
                "eventCoding": {
                    "system": "http://nphies.sa/terminology/CodeSystem/ksa-message-events",
                    "code": "priorauth-response"
                },
                "destination": [
                    {
                        "endpoint": "http://provider.com",
                        "receiver": {
                            "type": "Organization",
                            "identifier": {
                                "system": "http://nphies.sa/license/provider-license",
                                "value": "PR-FHIR"
                            }
                        }
                    }
                ],
                "sender": {
                    "type": "Organization",
                    "identifier": {
                        "system": "http://nphies.sa/license/payer-license",
                        "value": "INS-FHIR"
                    }
                },
                "source": {
                    "endpoint": "http://pseudo-payer.com.sa"
                },
                "response": {
                    "identifier": "0296c6fe-fd3d-48fe-a72d-8a4952943187",
                    "code": "ok"
                },
                "focus": [
                    {
                        "reference": "http://pseudo-payer.com.sa/ClaimResponse/173087"
                    }
                ]
            }
        },
        {
            "fullUrl": "http://pseudo-payer.com.sa/ClaimResponse/173087",
            "resource": {
                "resourceType": "ClaimResponse",
                "id": "173087",
                "meta": {
                    "profile": [
                        "http://nphies.sa/fhir/ksa/nphies-fs/StructureDefinition/prior-auth-response|1.0.0"
                    ]
                },
                "extension": [
                    {
                        "url": "http://nphies.sa/fhir/ksa/nphies-fs/StructureDefinition/extension-adjudication-outcome",
                        "valueCodeableConcept": {
                            "coding": [
                                {
                                    "system": "http://nphies.sa/terminology/CodeSystem/adjudication-outcome",
                                    "code": "approved"
                                }
                            ]
                        }
                    }
                ],
                "identifier": [
                    {
                        "system": "http://pseudo-payer.com.sa/claimresponse",
                        "value": "res_470333"
                    }
                ],
                "status": "active",
                "type": {
                    "coding": [
                        {
                            "system": "http://terminology.hl7.org/CodeSystem/claim-type",
                            "code": "professional"
                        }
                    ]
                },
                "subType": {
                    "coding": [
                        {
                            "system": "http://nphies.sa/terminology/CodeSystem/claim-subtype",
                            "code": "emr"
                        }
                    ]
                },
                "use": "preauthorization",
                "patient": {
                    "reference": "http://provider.com/Patient/123454186"
                },
                "created": "2023-12-05",
                "insurer": {
                    "reference": "http://provider.com/Organization/bff3aa1fbd3648619ac082357bf135db"
                },
                "requestor": {
                    "reference": "http://provider.com/Organization/b1b3432921324f97af3be9fd0b1a14ae"
                },
                "request": {
                    "type": "Claim",
                    "identifier": {
                        "system": "http://provider.com/authorization",
                        "value": "req_17308887"
                    }
                },
                "outcome": "complete",
                "preAuthRef": "Auth13234434",
                "preAuthPeriod": {
                    "start": "2023-12-05",
                    "end": "2023-12-20"
                },
                "item": [
                    {
                        "extension": [
                            {
                                "url": "http://nphies.sa/fhir/ksa/nphies-fs/StructureDefinition/extension-adjudication-outcome",
                                "valueCodeableConcept": {
                                    "coding": [
                                        {
                                            "system": "http://nphies.sa/terminology/CodeSystem/adjudication-outcome",
                                            "code": "approved"
                                        }
                                    ]
                                }
                            }
                        ],
                        "itemSequence": 1,
                        "adjudication": [
                            {
                                "category": {
                                    "coding": [
                                        {
                                            "system": "http://terminology.hl7.org/CodeSystem/adjudication",
                                            "code": "eligible"
                                        }
                                    ]
                                },
                                "amount": {
                                    "value": 120,
                                    "currency": "SAR"
                                }
                            },
                            {
                                "category": {
                                    "coding": [
                                        {
                                            "system": "http://terminology.hl7.org/CodeSystem/adjudication",
                                            "code": "copay"
                                        }
                                    ]
                                },
                                "amount": {
                                    "value": 0,
                                    "currency": "SAR"
                                }
                            },
                            {
                                "category": {
                                    "coding": [
                                        {
                                            "system": "http://terminology.hl7.org/CodeSystem/adjudication",
                                            "code": "benefit"
                                        }
                                    ]
                                },
                                "amount": {
                                    "value": 120,
                                    "currency": "SAR"
                                }
                            },
                            {
                                "category": {
                                    "coding": [
                                        {
                                            "system": "http://nphies.sa/terminology/CodeSystem/ksa-adjudication",
                                            "code": "approved-quantity"
                                        }
                                    ]
                                },
                                "value": 1
                            }
                        ]
                    }
                ],
                "total": [
                    {
                        "category": {
                            "coding": [
                                {
                                    "system": "http://terminology.hl7.org/CodeSystem/adjudication",
                                    "code": "eligible"
                                }
                            ]
                        },
                        "amount": {
                            "value": 120,
                            "currency": "SAR"
                        }
                    },
                    {
                        "category": {
                            "coding": [
                                {
                                    "system": "http://terminology.hl7.org/CodeSystem/adjudication",
                                    "code": "benefit"
                                }
                            ]
                        },
                        "amount": {
                            "value": 120,
                            "currency": "SAR"
                        }
                    },
                    {
                        "category": {
                            "coding": [
                                {
                                    "system": "http://terminology.hl7.org/CodeSystem/adjudication",
                                    "code": "copay"
                                }
                            ]
                        },
                        "amount": {
                            "value": 0,
                            "currency": "SAR"
                        }
                    }
                ],
                "insurance": [
                    {
                        "sequence": 1,
                        "focal": true,
                        "coverage": {
                            "reference": "http://provider.com/Coverage/1333"
                        }
                    }
                ]
            }
        },
        {
            "fullUrl": "http://provider.com/Patient/123454186",
            "resource": {
                "resourceType": "Patient",
                "id": "123454186",
                "meta": {
                    "profile": [
                        "http://nphies.sa/fhir/ksa/nphies-fs/StructureDefinition/patient|1.0.0"
                    ]
                },
                "extension": [
                    {
                        "url": "http://nphies.sa/fhir/ksa/nphies-fs/StructureDefinition/extension-occupation",
                        "valueCodeableConcept": {
                            "coding": [
                                {
                                    "system": "http://nphies.sa/terminology/CodeSystem/occupation",
                                    "code": "business"
                                }
                            ]
                        }
                    }
                ],
                "identifier": [
                    {
                        "type": {
                            "coding": [
                                {
                                    "system": "http://terminology.hl7.org/CodeSystem/v2-0203",
                                    "code": "PRC",
                                    "display": "Permanent Resident Card Number"
                                }
                            ]
                        },
                        "system": "http://nphies.sa/identifier/iqama",
                        "value": "2000000001"
                    }
                ],
                "active": true,
                "name": [
                    {
                        "use": "official",
                        "text": "Ahmad Khaled Abbas",
                        "family": "Ahmad",
                        "given": [
                            "Khaled",
                            "Abbas"
                        ]
                    }
                ],
                "telecom": [
                    {
                        "system": "phone",
                        "value": "+966512345691"
                    }
                ],
                "gender": "male",
                "_gender": {
                    "extension": [
                        {
                            "url": "http://nphies.sa/fhir/ksa/nphies-fs/StructureDefinition/extension-ksa-administrative-gender",
                            "valueCodeableConcept": {
                                "coding": [
                                    {
                                        "system": "http://nphies.sa/terminology/CodeSystem/ksa-administrative-gender",
                                        "code": "male",
                                        "display": "Male"
                                    }
                                ]
                            }
                        }
                    ]
                },
                "birthDate": "1984-12-25",
                "maritalStatus": {
                    "coding": [
                        {
                            "system": "http://terminology.hl7.org/CodeSystem/v3-MaritalStatus",
                            "code": "M"
                        }
                    ]
                }
            }
        },
        {
            "fullUrl": "http://provider.com/Organization/b1b3432921324f97af3be9fd0b1a14ae",
            "resource": {
                "resourceType": "Organization",
                "id": "b1b3432921324f97af3be9fd0b1a14ae",
                "meta": {
                    "profile": [
                        "http://nphies.sa/fhir/ksa/nphies-fs/StructureDefinition/provider-organization|1.0.0"
                    ]
                },
                "extension": [
                    {
                        "url": "http://nphies.sa/fhir/ksa/nphies-fs/StructureDefinition/extension-provider-type",
                        "valueCodeableConcept": {
                            "coding": [
                                {
                                    "system": "http://nphies.sa/terminology/CodeSystem/provider-type",
                                    "code": "1",
									"display": "Hospital"
                                }
                            ]
                        }
                    }
                ],
                "identifier": [
                    {
                        "system": "http://nphies.sa/license/provider-license",
                        "value": "PR-FHIR"
                    }
                ],
                "active": true,
                "type": [
                    {
                        "coding": [
                            {
                                "system": "http://nphies.sa/terminology/CodeSystem/organization-type",
                                "code": "prov"
                            }
                        ]
                    }
                ],
                "name": "Saudi General Hospital"
            }
        },
        {
            "fullUrl": "http://provider.com/Organization/bff3aa1fbd3648619ac082357bf135db",
            "resource": {
                "resourceType": "Organization",
                "id": "bff3aa1fbd3648619ac082357bf135db",
                "meta": {
                    "profile": [
                        "http://nphies.sa/fhir/ksa/nphies-fs/StructureDefinition/insurer-organization|1.0.0"
                    ]
                },
                "identifier": [
                    {
                        "system": "http://nphies.sa/license/payer-license",
                        "value": "INS-FHIR"
                    }
                ],
                "active": true,
                "type": [
                    {
                        "coding": [
                            {
                                "system": "http://nphies.sa/terminology/CodeSystem/organization-type",
                                "code": "ins"
                            }
                        ]
                    }
                ],
                "name": "Test Payer"
            }
        },
        {
            "fullUrl": "http://provider.com/Organization/13",
            "resource": {
                "resourceType": "Organization",
                "id": "13",
                "meta": {
                    "profile": [
                        "http://nphies.sa/fhir/ksa/nphies-fs/StructureDefinition/policyholder-organization|1.0.0"
                    ]
                },
                "identifier": [
                    {
                        "system": "http://nphies.sa/identifier/organization",
                        "value": "5009"
                    }
                ],
                "active": true,
                "name": "Policy Holder Organization"
            }
        },
        {
            "fullUrl": "http://provider.com/Coverage/1333",
            "resource": {
                "resourceType": "Coverage",
                "id": "1333",
                "meta": {
                    "profile": [
                        "http://nphies.sa/fhir/ksa/nphies-fs/StructureDefinition/coverage|1.0.0"
                    ]
                },
                "identifier": [
                    {
                        "system": "http://pseudo-payer.com.sa/memberid",
                        "value": "0000000001"
                    }
                ],
                "status": "active",
                "type": {
                    "coding": [
                        {
                            "system": "http://nphies.sa/terminology/CodeSystem/coverage-type",
                            "code": "EHCPOL",
                            "display": "extended healthcare"
                        }
                    ]
                },
                "policyHolder": {
                    "reference": "http://provider.com/Organization/13"
                },
                "subscriber": {
                    "reference": "http://provider.com/Patient/123454186"
                },
                "beneficiary": {
                    "reference": "http://provider.com/Patient/123454186"
                },
                "relationship": {
                    "coding": [
                        {
                            "system": "http://terminology.hl7.org/CodeSystem/subscriber-relationship",
                            "code": "self",
                            "display": "Self"
                        }
                    ]
                },
                "payor": [
                    {
                        "reference": "http://provider.com/Organization/bff3aa1fbd3648619ac082357bf135db"
                    }
                ],
                "class": [
                    {
                        "type": {
                            "coding": [
                                {
                                    "system": "http://terminology.hl7.org/CodeSystem/coverage-class",
                                    "code": "plan"
                                }
                            ]
                        },
                        "value": "CB135",
                        "name": "Insurance Plan A"
                    }
                ],
                "network": "Golden C"
            }
        }
    ]
}