{
	"resourceType": "Bundle",
	"id": "d3ca4fee-3d45-4dc0-b96d-df27d6bf3073",
	"meta": {
		"profile": [
			"http://nphies.sa/fhir/ksa/nphies-fs/StructureDefinition/bundle|1.0.0"
		]
	},
	"type": "message",
	"timestamp": "2023-12-03T09:23:15.23+03:00",
	"entry": [
		{
			"fullUrl": "urn:uuid:f4a14305-a9af-427d-9f1c-64c8e2d93073",
			"resource": {
				"resourceType": "MessageHeader",
				"id": "f4a14305-a9af-427d-9f1c-64c8e2d93073",
				"meta": {
					"profile": [
						"http://nphies.sa/fhir/ksa/nphies-fs/StructureDefinition/message-header|1.0.0"
					]
				},
				"eventCoding": {
					"system": "http://nphies.sa/terminology/CodeSystem/ksa-message-events",
					"code": "priorauth-request"
				},
				"destination": [
					{
						"endpoint": "http://nphies.sa/license/payer-license/INS-FHIR",
						"receiver": {
							"type": "Organization",
							"identifier": {
								"system": "http://nphies.sa/license/payer-license",
								"value": "INS-FHIR"
							}
						}
					}
				],
				"sender": {
					"type": "Organization",
					"identifier": {
						"system": "http://nphies.sa/license/provider-license",
						"value": "PR-FHIR"
					}
				},
				"source": {
					"endpoint": "http://provider.com.sa"
				},
				"focus": [
					{
						"reference": "http://provider.com.sa/Claim/123073"
					}
				]
			}
		},
		{
			"fullUrl": "http://provider.com.sa/Claim/123073",
			"resource": {
				"resourceType": "Claim",
				"id": "123073",
				"meta": {
					"profile": [
						"http://nphies.sa/fhir/ksa/nphies-fs/StructureDefinition/vision-priorauth|1.0.0"
					]
				},
				"identifier": [
					{
						"system": "http://provider.com.sa/authorization",
						"value": "req_9123073"
					}
				],
				"status": "active",
				"type": {
					"coding": [
						{
							"system": "http://terminology.hl7.org/CodeSystem/claim-type",
							"code": "vision"
						}
					]
				},
				"subType": {
					"coding": [
						{
							"system": "http://nphies.sa/terminology/CodeSystem/claim-subtype",
							"code": "op"
						}
					]
				},
				"use": "preauthorization",
				"patient": {
					"reference": "http://provider.com.sa/Patient/3"
				},
				"created": "2023-12-03T09:23:15.23+03:00",
				"insurer": {
					"reference": "http://provider.com.sa/Organization/11"
				},
				"provider": {
					"reference": "http://provider.com.sa/Organization/10"
				},
				"priority": {
					"coding": [
						{
							"system": "http://terminology.hl7.org/CodeSystem/processpriority",
							"code": "normal"
						}
					]
				},
				"prescription": {
					"reference": "http://provider.com.sa/Visionprescription/1"
				},
				"payee": {
					"type": {
						"coding": [
							{
								"system": "http://terminology.hl7.org/CodeSystem/payeetype",
								"code": "provider"
							}
						]
					}
				},
				"careTeam": [
					{
						"sequence": 1,
						"provider": {
							"reference": "http://provider.com.sa/Practitioner/7"
						},
						"role": {
							"coding": [
								{
									"system": "http://terminology.hl7.org/CodeSystem/claimcareteamrole",
									"code": "primary"
								}
							]
						},
						"qualification": {
							"coding": [
								{
									"system": "http://nphies.sa/terminology/CodeSystem/practice-codes",
									"code": "11.11"
								}
							]
						}
					}
				],
				"diagnosis": [
					{
						"sequence": 1,
						"diagnosisCodeableConcept": {
							"coding": [
								{
									"system": "http://hl7.org/fhir/sid/icd-10-am",
									"code": "Z01.0",
									"display": "Examination of eyes and vision"
								}
							]
						},
						"type": [
							{
								"coding": [
									{
										"system": "http://nphies.sa/terminology/CodeSystem/diagnosis-type",
										"code": "principal"
									}
								]
							}
						]
					}
				],
				"insurance": [
					{
						"sequence": 1,
						"focal": true,
						"coverage": {
							"reference": "http://provider.com.sa/Coverage/3"
						}
					}
				],
				"supportingInfo": [
					{
						"sequence": 10,
						"category": {
							"coding": [
								{
									"system": "http://nphies.sa/terminology/CodeSystem/claim-information-category",
									"code": "investigation-result"
								}
							]
						},
						"code": {
							"coding": [
								{
									"system": "http://nphies.sa/terminology/CodeSystem/investigation-result",
									"code": "INP",
									"display": "Investigation(s) not performed"
								}
							]
						}
					},
					{
						"sequence": 12,
						"category": {
							"coding": [
								{
									"system": "http://nphies.sa/terminology/CodeSystem/claim-information-category",
									"code": "treatment-plan"
								}
							]
						},
						"valueString": "NA"
					},
					{
						"sequence": 13,
						"category": {
							"coding": [
								{
									"system": "http://nphies.sa/terminology/CodeSystem/claim-information-category",
									"code": "patient-history"
								}
							]
						},
						"valueString": "No systemic disease"
					},
					{
						"sequence": 14,
						"category": {
							"coding": [
								{
									"system": "http://nphies.sa/terminology/CodeSystem/claim-information-category",
									"code": "physical-examination"
								}
							]
						},
						"valueString": "Stable"
					},
					{
						"sequence": 15,
						"category": {
							"coding": [
								{
									"system": "http://nphies.sa/terminology/CodeSystem/claim-information-category",
									"code": "history-of-present-illness"
								}
							]
						},
						"valueString": "No history"
					}
				],
				"item": [
					{
						"sequence": 1,
						"careTeamSequence": [
							1
						],
						"diagnosisSequence": [
							1
						],
						"extension": [
							{
								"url": "http://nphies.sa/fhir/ksa/nphies-fs/StructureDefinition/extension-patient-share",
								"valueMoney": {
									"value": 0,
									"currency": "SAR"
								}
							},
							{
								"url": "http://nphies.sa/fhir/ksa/nphies-fs/StructureDefinition/extension-package",
								"valueBoolean": false
							}
						],
						"productOrService": {
							"coding": [
								{
									"system": "http://nphies.sa/terminology/CodeSystem/procedures",
									"code": "96092-00-10",
									"display": "Fitting of spectacles"
								}
							]
						},
						"servicedDate": "2023-12-04",
						"quantity": {
							"value": 1
						},
						"unitPrice": {
							"value": 800,
							"currency": "SAR"
						},
						"factor": 0.5,
						"net": {
							"value": 400,
							"currency": "SAR"
						}
					}
				],
				"total": {
					"value": 400,
					"currency": "SAR"
				}
			}
		},
		{
			"fullUrl": "http://provider.com.sa/Patient/3",
			"resource": {
				"resourceType": "Patient",
				"id": "3",
				"meta": {
					"profile": [
						"http://nphies.sa/fhir/ksa/nphies-fs/StructureDefinition/patient|1.0.0"
					]
				},
				"extension": [
					{
						"url": "http://nphies.sa/fhir/ksa/nphies-fs/StructureDefinition/extension-occupation",
						"valueCodeableConcept": {
							"coding": [
								{
									"system": "http://nphies.sa/terminology/CodeSystem/occupation",
									"code": "housewife"
								}
							]
						}
					}
				],
				"identifier": [
					{
						"type": {
							"coding": [
								{
									"system": "http://terminology.hl7.org/CodeSystem/v2-0203",
									"code": "PRC"
								}
							]
						},
						"system": "http://nphies.sa/identifier/iqama",
						"value": "2000000003"
					}
				],
				"active": true,
				"name": [
					{
						"text": "Sara Khan",
						"family": "Khan",
						"given": [
							"Sara"
						]
					}
				],
				"gender": "female",
				"_gender": {
					"extension": [
						{
							"url": "http://nphies.sa/fhir/ksa/nphies-fs/StructureDefinition/extension-ksa-administrative-gender",
							"valueCodeableConcept": {
								"coding": [
									{
										"system": "http://nphies.sa/terminology/CodeSystem/ksa-administrative-gender",
										"code": "female"
									}
								]
							}
						}
					]
				},
				"birthDate": "1974-03-13",
				"maritalStatus": {
					"coding": [
						{
							"system": "http://terminology.hl7.org/CodeSystem/v3-MaritalStatus",
							"code": "M"
						}
					]
				}
			}
		},
		{
			"fullUrl": "http://provider.com.sa/Patient/123454186",
			"resource": {
				"resourceType": "Patient",
				"id": "123454186",
				"meta": {
					"profile": [
						"http://nphies.sa/fhir/ksa/nphies-fs/StructureDefinition/patient|1.0.0"
					]
				},
				"extension": [
					{
						"url": "http://nphies.sa/fhir/ksa/nphies-fs/StructureDefinition/extension-occupation",
						"valueCodeableConcept": {
							"coding": [
								{
									"system": "http://nphies.sa/terminology/CodeSystem/occupation",
									"code": "business"
								}
							]
						}
					}
				],
				"identifier": [
					{
						"type": {
							"coding": [
								{
									"system": "http://terminology.hl7.org/CodeSystem/v2-0203",
									"code": "PRC",
									"display": "Permanent Resident Card Number"
								}
							]
						},
						"system": "http://nphies.sa/identifier/iqama",
						"value": "2000000001"
					}
				],
				"active": true,
				"name": [
					{
						"use": "official",
						"text": "Ahmad Khaled Abbas",
						"family": "Ahmad",
						"given": [
							"Khaled",
							"Abbas"
						]
					}
				],
				"telecom": [
					{
						"system": "phone",
						"value": "+966512345691"
					}
				],
				"gender": "male",
				"_gender": {
					"extension": [
						{
							"url": "http://nphies.sa/fhir/ksa/nphies-fs/StructureDefinition/extension-ksa-administrative-gender",
							"valueCodeableConcept": {
								"coding": [
									{
										"system": "http://nphies.sa/terminology/CodeSystem/ksa-administrative-gender",
										"code": "male",
										"display": "Male"
									}
								]
							}
						}
					]
				},
				"birthDate": "1984-12-25",
				"maritalStatus": {
					"coding": [
						{
							"system": "http://terminology.hl7.org/CodeSystem/v3-MaritalStatus",
							"code": "M"
						}
					]
				}
			}
		},
		{
			"fullUrl": "http://provider.com.sa/Coverage/3",
			"resource": {
				"resourceType": "Coverage",
				"id": "3",
				"meta": {
					"profile": [
						"http://nphies.sa/fhir/ksa/nphies-fs/StructureDefinition/coverage|1.0.0"
					]
				},
				"identifier": [
					{
						"system": "http://pseudo-payer.com.sa/memberid",
						"value": "0000000003"
					}
				],
				"status": "active",
				"type": {
					"coding": [
						{
							"system": "http://nphies.sa/terminology/CodeSystem/coverage-type",
							"code": "EHCPOL",
							"display": "extended healthcare"
						}
					]
				},
				"policyHolder": {
					"reference": "http://provider.com.sa/Organization/13"
				},
				"subscriber": {
					"reference": "http://provider.com.sa/Patient/123454186"
				},
				"beneficiary": {
					"reference": "http://provider.com.sa/Patient/3"
				},
				"relationship": {
					"coding": [
						{
							"system": "http://terminology.hl7.org/CodeSystem/subscriber-relationship",
							"code": "spouse",
							"display": "Spouse"
						}
					]
				},
				"payor": [
					{
						"reference": "http://provider.com.sa/Organization/11"
					}
				],
				"class": [
					{
						"type": {
							"coding": [
								{
									"system": "http://terminology.hl7.org/CodeSystem/coverage-class",
									"code": "group"
								}
							]
						},
						"value": "CB135",
						"name": "Insurance Group A"
					},
					{
						"type": {
							"coding": [
								{
									"system": "http://terminology.hl7.org/CodeSystem/coverage-class",
									"code": "plan"
								}
							]
						},
						"value": "ABC123",
						"name": "Insurance Group A"
					}
				],
				"network": "Golden C"
			}
		},
		{
			"fullUrl": "http://provider.com.sa/Organization/13",
			"resource": {
				"resourceType": "Organization",
				"id": "13",
				"meta": {
					"profile": [
						"http://nphies.sa/fhir/ksa/nphies-fs/StructureDefinition/policyholder-organization|1.0.0"
					]
				},
				"identifier": [
					{
						"system": "http://nphies.sa/identifier/organization",
						"value": "5009"
					}
				],
				"active": true,
				"name": "Policy Holder Organization"
			}
		},
		{
			"fullUrl": "http://provider.com.sa/Practitioner/7",
			"resource": {
				"resourceType": "Practitioner",
				"id": "7",
				"meta": {
					"profile": [
						"http://nphies.sa/fhir/ksa/nphies-fs/StructureDefinition/practitioner|1.0.0"
					]
				},
				"identifier": [
					{
						"type": {
							"coding": [
								{
									"system": "http://terminology.hl7.org/CodeSystem/v2-0203",
									"code": "MD"
								}
							]
						},
						"system": "http://nphies.sa/license/practitioner-license",
						"value": "N-P-00004"
					}
				],
				"active": true,
				"name": [
					{
						"text": "Dr. Ashraf Naeem",
						"family": "Naeem",
						"given": [
							"Ashraf"
						]
					}
				]
			}
		},
		{
			"fullUrl": "http://provider.com.sa/Visionprescription/1",
			"resource": {
				"resourceType": "VisionPrescription",
				"id": "1",
				"meta": {
					"profile": [
						"http://nphies.sa/fhir/ksa/nphies-fs/StructureDefinition/vision-prescription|1.0.0"
					]
				},
				"identifier": [
					{
						"system": "http://provider.com.sa/visionprescription",
						"value": "2193073"
					}
				],
				"status": "active",
				"created": "2023-12-02T14:56:49.034+03:00",
				"patient": {
					"reference": "http://provider.com.sa/Patient/3"
				},
				"dateWritten": "2023-12-02T14:56:49.034+03:00",
				"prescriber": {
					"type": "Practitioner",
					"identifier": {
						"type": {
							"coding": [
								{
									"system": "http://terminology.hl7.org/CodeSystem/v2-0203",
									"code": "MD"
								}
							]
						},
						"system": "http://nphies.sa/licenses/practitioner",
						"value": "N-P-00004"
					}
				},
				"lensSpecification": [
					{
						"product": {
							"coding": [
								{
									"system": "http://nphies.sa/terminology/CodeSystem/lens-type",
									"code": "lens"
								}
							]
						},
						"eye": "left",
						"sphere": 1.5,
						"cylinder": 0.75,
						"axis": 110,
						"prism": [
							{
								"amount": 2,
								"base": "up"
							}
						]
					},
					{
						"product": {
							"coding": [
								{
									"system": "http://nphies.sa/terminology/CodeSystem/lens-type",
									"code": "lens"
								}
							]
						},
						"eye": "right",
						"sphere": 2.25,
						"cylinder": 0.75,
						"axis": 80
					}
				]
			}
		},
		{
			"fullUrl": "http://provider.com.sa/Organization/10",
			"resource": {
				"resourceType": "Organization",
				"id": "10",
				"meta": {
					"profile": [
						"http://nphies.sa/fhir/ksa/nphies-fs/StructureDefinition/provider-organization|1.0.0"
					]
				},
				"extension": [
					{
						"url": "http://nphies.sa/fhir/ksa/nphies-fs/StructureDefinition/extension-provider-type",
						"valueCodeableConcept": {
							"coding": [
								{
									"system": "http://nphies.sa/terminology/CodeSystem/provider-type",
									"code": "5",
									"display": "Clinic"
								}
							]
						}
					}
				],
				"identifier": [
					{
						"use": "official",
						"system": "http://nphies.sa/license/provider-license",
						"value": "PR-FHIR"
					}
				],
				"active": true,
				"type": [
					{
						"coding": [
							{
								"system": "http://nphies.sa/terminology/CodeSystem/organization-type",
								"code": "prov"
							}
						]
					}
				],
				"name": "Test Provider"
			}
		},
		{
			"fullUrl": "http://provider.com.sa/Organization/11",
			"resource": {
				"resourceType": "Organization",
				"id": "11",
				"meta": {
					"profile": [
						"http://nphies.sa/fhir/ksa/nphies-fs/StructureDefinition/insurer-organization|1.0.0"
					]
				},
				"identifier": [
					{
						"use": "official",
						"system": "http://nphies.sa/license/payer-license",
						"value": "INS-FHIR"
					}
				],
				"active": true,
				"type": [
					{
						"coding": [
							{
								"system": "http://nphies.sa/terminology/CodeSystem/organization-type",
								"code": "ins"
							}
						]
					}
				],
				"name": "Test Payer"
			}
		}
	]
}